time_index,global_position_latitude,tx_controls_5,altitude_baro,servos_0,acceleration_y,servos_1,velocity_x,servos_5,servos_4,attitude_roll,attitude_pitch,global_position_longitude,axis_rate_roll,acceleration_z,mode_2,magnetometer_2,tx_controls_0,magnetometer_1,servos_2,wind_x,position_y,airspeed_0,mode_1,magnetometer_0,position_x,tx_controls_4,position_z,altitude_gps,time_flight,gps_sat_count_0,mode_0,axis_rate_yaw,velocity_z,tx_controls_7,tx_controls_6,axis_rate_pitch,tx_controls_1,velocity_y,servos_6,time_actual,servos_7,wind_y,tx_controls_3,tx_controls_2,servos_3,acceleration_x,attitude_yaw,rpm_0,airspeed_1,current_0,rpm_1,current_3,battery_1,current_1,battery_0,current_2
0.0,51.459415199999995,0.0,-0.4221740663051605,0.0,0.03369677811861038,0.0,-0.006230548024177551,0.0,0.0,0.009250245035569947,0.11554079648202462,-2.7913069,0.0,-9.688285827636719,3.0,403.0,1500.0,-3.0,0.0,0.0,0.0,0.0,11.0,208.0,0.0,0.0,0.4876936972141266,-5.08,16.865662,18.0,11.0,0.0,0.03632872924208641,0.0,0.0,0.0,1500.0,-0.016001487150788307,0.0,16.826257,0.0,0.0,1500.0,0.0,0.0,1.6475105285644531,2.662674306842549,,,,,,,,,
0.09998099999999965,51.4594148,0.0,-0.4221740663051605,0.0,-0.0004602052504196763,0.0,-0.006602894514799118,0.0,0.0,0.00942477796076938,0.11554079648202462,-2.7913068,0.0,-9.695757865905762,3.0,403.0,1500.0,-3.0,0.0,0.0,0.0,0.0,11.0,208.0,0.0,0.0,0.48706990480422974,-5.1000000000000005,16.965643,18.0,11.0,0.0,0.03193764016032219,0.0,0.0,0.0,1500.0,-0.019951455295085907,0.0,16.945664999999998,0.0,0.0,1500.0,0.0,0.0,1.651369571685791,2.6623252409921503,,,,,,,,,
0.1999539999999982,51.4594148,0.0,-0.39643174409866333,0.0,0.004561745095998049,0.0,-0.006936132442206144,0.0,0.0,0.009599310885968814,0.11571532940722405,-2.7913068,0.0,-9.682089805603027,3.0,403.0,1500.0,-3.0,0.0,0.0,0.0,0.0,11.0,208.0,0.0,0.0,0.48600560426712036,-5.1000000000000005,17.065616,18.0,11.0,0.0,0.02879980020225048,0.0,0.0,0.0,1500.0,-0.022694233804941177,0.0,17.026498999999998,0.0,0.0,1500.0,0.0,0.0,1.6485555171966553,2.662150708066951,,,,,,,,,
0.2999529999999986,51.4594144,0.0,-0.31920477747917175,0.0,0.003165061818435788,0.0,-0.00724472850561142,0.0,0.0,0.009773843811168246,0.11571532940722405,-2.7913068,0.0,-9.689179420471191,3.0,403.0,1500.0,-3.0,0.0,0.0,0.0,0.0,11.0,208.0,0.0,0.0,0.48318716883659363,-5.13,17.165615,18.0,11.0,0.0,0.023849157616496086,0.0,0.0,0.0,1500.0,-0.024076199159026146,0.0,17.145730999999998,0.0,0.0,1500.0,0.0,0.0,1.6570210456848145,2.661801642216552,,,,,,,,,
0.3999360000000003,51.4594144,0.0,-0.37068942189216614,0.0,-0.00561909843236208,0.0,-0.007201262749731541,0.0,0.0,0.009948376736367679,0.11571532940722405,-2.7913068,0.0,-9.693636894226074,3.0,403.0,1500.0,-3.0,0.0,0.0,0.0,0.0,11.0,208.0,0.0,0.0,0.47939714789390564,-5.13,17.265598,18.0,11.0,0.0,0.019954746589064598,0.0,0.0,0.0,1500.0,-0.025988943874835968,0.0,17.225970999999998,0.0,0.0,1500.0,0.0,0.0,1.6462244987487793,2.661801642216552,,,,,,,,,
0.49995699999999843,51.4594142,0.0,-0.4788071811199188,0.0,0.026095464825630188,0.0,-0.007222465705126524,0.0,0.0,0.010122909661567111,0.11571532940722405,-2.7913068,0.0,-9.680793762207031,3.0,403.0,1500.0,-3.0,0.0,0.0,0.0,0.0,11.0,208.0,0.0,0.0,0.47149458527565,-5.16,17.365619,18.0,11.0,0.0,0.013491423800587654,0.0,0.0,0.0,1500.0,-0.029499247670173645,0.0,17.345745,0.0,0.0,1500.0,0.0,0.0,1.6484339237213135,2.661452576366153,,,,,,,,,
0.5999619999999979,51.4594142,0.0,-0.39643174409866333,0.0,-0.005101597867906094,0.0,-0.007101180497556925,0.0,0.0,0.010471975511965976,0.11588986233242349,-2.7913068,0.0,-9.699243545532227,3.0,403.0,1500.0,-3.0,0.0,0.0,0.0,0.0,11.0,208.0,0.0,0.0,0.4670838713645935,-5.16,17.465624,18.0,11.0,0.0,0.010285983793437481,0.0,0.0,0.0,1500.0,-0.029961980879306793,0.0,17.426040999999998,0.0,0.0,1500.0,0.0,0.0,1.6440787315368652,2.6612780434409533,,,,,,,,,
0.699863999999998,51.4594138,0.0,-0.4736587107181549,0.0,-0.016607290133833885,0.0,-0.007029133383184671,0.0,0.0,0.010471975511965976,0.11588986233242349,-2.7913068,0.0,-9.711080551147461,3.0,403.0,1500.0,-3.0,0.0,0.0,0.0,0.0,11.0,208.0,0.0,0.0,0.46154454350471497,-5.2,17.565526,18.0,11.0,0.0,0.005621644668281078,0.0,0.0,0.0,1500.0,-0.030902199447155,0.0,17.546288,0.0,0.0,1500.0,0.0,0.0,1.6326789855957031,2.6611035105157543,,,,,,,,,
0.7999969999999976,51.4594138,0.0,-0.48910412192344666,0.0,-0.012312851846218109,0.0,-0.007387071847915649,0.0,0.0,0.010471975511965976,0.11588986233242349,-2.7913068,0.0,-9.684606552124023,3.0,403.0,1500.0,-3.0,0.0,0.0,0.0,0.0,11.0,208.0,0.0,0.0,0.4584207236766815,-5.2,17.665658999999998,18.0,11.0,0.0,0.0025754240341484547,0.0,0.0,0.0,1500.0,-0.034403081983327866,0.0,17.62653,0.0,0.0,1500.0,0.0,0.0,1.6499438285827637,2.660928977590555,,,,,,,,,
0.8999859999999984,51.4594135,0.0,-0.5354402661323547,0.0,0.048993948847055435,0.0,-0.006624249275773764,0.0,0.0,0.01064650843716541,0.11588986233242349,-2.7913069,0.0,-9.688693046569824,3.0,403.0,1500.0,-3.0,0.0,0.0,0.0,0.0,11.0,208.0,0.0,0.0,0.45576491951942444,-5.24,17.765648,18.0,11.0,0.0,-0.001162414439022541,0.0,0.0,0.0,1500.0,-0.03519539535045624,0.0,17.745680999999998,0.0,0.0,1500.0,0.0,0.0,1.6499253511428833,2.6607544446653555,,,,,,,,,
0.9999970000000005,51.4594135,0.0,-0.5663310885429382,0.0,-0.028540126979351044,0.0,-0.007219370454549789,0.0,0.0,0.010995574287564275,0.11588986233242349,-2.7913069,0.0,-9.694133758544922,3.0,403.0,1500.0,-3.0,0.0,0.0,0.0,0.0,11.0,208.0,0.0,0.0,0.4556301534175873,-5.24,17.865659,18.0,11.0,0.00017453292519943296,-0.002856925828382373,0.0,0.0,0.0,1500.0,-0.036250848323106766,0.0,17.825964,0.0,0.0,1500.0,0.0,0.0,1.6469411849975586,2.660579911740156,,,,,,,,,
1.0999610000000004,51.459413299999994,0.0,-0.19049318134784698,0.0,-0.005656088702380657,0.0,-0.0070490906946361065,0.0,0.0,0.010995574287564275,0.11588986233242349,-2.7913069,0.0,-9.692861557006836,3.0,403.0,1500.0,-3.0,0.0,0.0,0.0,0.0,11.0,208.0,0.0,0.0,0.45820486545562744,-5.28,17.965623,18.0,11.0,0.00017453292519943296,-0.004224033560603857,0.0,0.0,0.0,1500.0,-0.03731853514909744,0.0,17.945695,0.0,0.0,1500.0,0.0,0.0,1.646660566329956,2.6604053788149566,,,,,,,,,
1.1999659999999999,51.459413299999994,0.0,-0.48395565152168274,0.0,0.03055793046951294,0.0,-0.00706535205245018,0.0,0.0,0.010995574287564275,0.11588986233242349,-2.7913069,0.0,-9.683379173278809,3.0,403.0,1500.0,-3.0,0.0,0.0,0.0,0.0,11.0,208.0,0.0,0.0,0.45706045627593994,-5.28,18.065628,18.0,11.0,0.00017453292519943296,-0.007041524164378643,0.0,0.0,0.0,1500.0,-0.03848716989159584,0.0,18.026529999999998,0.0,0.0,1500.0,0.0,0.0,1.6535916328430176,2.6602308458897572,,,,,,,,,
1.2999779999999994,51.4594131,0.0,-0.40158021450042725,0.0,-0.022241588681936264,0.0,-0.007403572089970112,0.0,0.0,0.011519173063162575,0.11606439525762292,-2.7913069999999998,0.0,-9.686113357543945,3.0,403.0,1500.0,-3.0,0.0,0.0,0.0,0.0,11.0,208.0,0.0,0.0,0.45185723900794983,-5.33,18.16564,18.0,11.0,0.00017453292519943296,-0.011292099952697754,0.0,0.0,0.0,1500.0,-0.0398729033768177,0.0,18.145649,0.0,0.0,1500.0,0.0,0.0,1.6466749906539917,2.6598817800393584,,,,,,,,,
1.3999629999999996,51.4594131,0.0,-0.43247100710868835,0.0,-0.015766076743602753,0.0,-0.007486235350370407,0.0,0.0,0.011519173063162575,0.11606439525762292,-2.7913069999999998,0.0,-9.68171501159668,3.0,403.0,1500.0,-3.0,0.0,0.0,0.0,0.0,11.0,208.0,0.0,0.0,0.44870516657829285,-5.33,18.265625,18.0,11.0,0.00034906585039886593,-0.014048073440790176,0.0,0.0,0.0,1500.0,-0.03998851776123047,0.0,18.226005,0.0,0.0,1500.0,0.0,0.0,1.6458394527435303,2.659707247114159,,,,,,,,,
1.5000009999999975,51.459412699999994,0.0,-0.3655409812927246,0.0,0.004279668442904949,0.0,-0.007885230705142021,0.0,0.0,0.011519173063162575,0.11606439525762292,-2.7913071,0.0,-9.689738273620605,3.0,403.0,1500.0,-3.0,0.0,0.0,0.0,0.0,11.0,208.0,0.0,0.0,0.44354256987571716,-5.38,18.365662999999998,18.0,11.0,0.00034906585039886593,-0.018121611326932907,0.0,0.0,0.0,1500.0,-0.04233900457620621,0.0,18.34583,0.0,0.0,1500.0,0.0,0.0,1.655380368232727,2.659532714188959,,,,,,,,,
1.5999839999999992,51.459412699999994,0.0,-0.504549503326416,0.0,0.006482402328401804,0.0,-0.006952357478439808,0.0,0.0,0.011693705988362009,0.11606439525762292,-2.7913071,0.00017453292519943296,-9.6832914352417,3.0,403.0,1500.0,-3.0,0.0,0.0,0.0,0.0,11.0,208.0,0.0,0.0,0.4394463002681732,-5.38,18.465646,18.0,11.0,0.00034906585039886593,-0.021158389747142792,0.0,0.0,0.0,1500.0,-0.041826359927654266,0.0,18.425967,0.0,0.0,1500.0,0.0,0.0,1.654672622680664,2.65935818126376,,,,,,,,,
1.7000369999999982,51.4594125,0.0,-0.43761947751045227,0.0,0.007024915423244238,0.0,-0.006696114782243967,0.0,0.0,0.011868238913561441,0.11606439525762292,-2.7913071,0.00017453292519943296,-9.700743675231934,3.0,403.0,1500.0,-3.0,0.0,0.0,0.0,0.0,11.0,208.0,0.0,0.0,0.433973103761673,-5.41,18.565699,18.0,11.0,0.0005235987755982988,-0.024992093443870544,0.0,0.0,0.0,1500.0,-0.041364509612321854,0.0,18.546286,0.0,0.0,1500.0,0.0,0.0,1.6250433921813965,2.658834582488162,,,,,,,,,
1.8000209999999974,51.4594125,0.0,-0.5302918553352356,0.0,-0.04735127091407776,0.0,-0.006770242005586624,0.0,0.0,0.011868238913561441,0.11588986233242349,-2.7913071,0.00034906585039886593,-9.68702507019043,3.0,403.0,1500.0,-3.0,0.0,0.0,0.0,0.0,11.0,208.0,0.0,0.0,0.43126270174980164,-5.41,18.665682999999998,18.0,11.0,0.0005235987755982988,-0.027207164093852043,0.0,0.0,0.0,1500.0,-0.042104750871658325,0.0,18.62643,0.0,0.0,1500.0,0.0,0.0,1.655948519706726,2.6586600495629624,,,,,,,,,
1.899989999999999,51.4594124,0.0,-0.5714795589447021,0.0,0.018901292234659195,0.0,-0.006624218542128801,0.0,0.0,0.011519173063162575,0.11588986233242349,-2.7913072999999997,0.00034906585039886593,-9.703495979309082,3.0,403.0,1500.0,-3.0,0.0,0.0,0.0,0.0,11.0,208.0,0.0,0.0,0.42873120307922363,-5.46,18.765652,18.0,11.0,0.0006981317007977319,-0.029333634302020073,0.0,0.0,0.0,1500.0,-0.04034723341464996,0.0,18.745648,0.0,0.0,1500.0,0.0,0.0,1.6239748001098633,2.6583109837125636,,,,,,,,,
1.999965999999997,51.4594124,0.0,-0.504549503326416,0.0,-0.004993050824850798,0.0,-0.005935863126069307,0.0,0.0,0.011344640137963142,0.11588986233242349,-2.7913072999999997,0.0005235987755982988,-9.694021224975586,3.0,403.0,1500.0,-3.0,0.0,0.0,0.0,0.0,11.0,208.0,0.0,0.0,0.42917853593826294,-5.46,18.865627999999997,18.0,11.0,0.0006981317007977319,-0.029955696314573288,0.0,0.0,0.00017453292519943296,1500.0,-0.040187593549489975,0.0,18.826014,0.0,0.0,1500.0,0.0,0.0,1.6333121061325073,2.6579619178621643,,,,,,,,,
2.099961999999998,51.459412199999996,0.0,-0.4479163885116577,0.0,0.015110082924365997,0.0,-0.005338808987289667,0.0,0.0,0.01117010721276371,0.11571532940722405,-2.7913074,0.0005235987755982988,-9.6926851272583,3.0,403.0,1500.0,-3.0,0.0,0.0,0.0,0.0,11.0,208.0,0.0,0.0,0.43147003650665283,-5.5,18.965624,18.0,11.0,0.0006981317007977319,-0.030277878046035767,0.0,0.0,0.00017453292519943296,1500.0,-0.03823088854551315,0.0,18.945679,0.0,0.0,1500.0,0.0,0.0,1.6508336067199707,2.657612852011766,,,,,,,,,
2.1998309999999996,51.459412199999996,0.0,-0.504549503326416,0.0,0.0019809214863926172,0.0,-0.005526828579604626,0.0,0.0,0.010995574287564275,0.11571532940722405,-2.7913074,0.0006981317007977319,-9.6923828125,3.0,403.0,1500.0,-3.0,0.0,0.0,0.0,0.0,11.0,208.0,0.0,0.0,0.4324454963207245,-5.5,19.065493,18.0,11.0,0.0006981317007977319,-0.03072369657456875,0.0,0.0,0.00017453292519943296,1500.0,-0.0353248231112957,0.0,19.026471,0.0,0.0,1500.0,0.0,0.0,1.6462030410766602,2.657438319086566,,,,,,,,,
2.299962999999998,51.459412,0.0,-0.5354402661323547,0.0,-0.02047460526227951,0.0,-0.005572800990194082,0.0,0.0,0.010471975511965976,0.11554079648202462,-2.7913074,0.0008726646259971648,-9.694549560546875,3.0,403.0,1500.0,-3.0,0.0,0.0,0.0,0.0,11.0,208.0,0.0,0.0,0.43344077467918396,-5.55,19.165625,18.0,11.0,0.0006981317007977319,-0.03157610073685646,0.0,0.0,0.00017453292519943296,1500.0,-0.03221748769283295,0.0,19.145729,0.0,0.0,1500.0,0.0,0.0,1.6433879137039185,2.6572637861613666,,,,,,,,,
2.400003999999999,51.459412,0.0,-0.3603925108909607,0.0,0.021494701504707336,0.0,-0.004651921801269054,0.0,0.0,0.009948376736367679,0.11554079648202462,-2.7913074,0.0008726646259971648,-9.708281517028809,3.0,403.0,1500.0,-3.0,0.0,0.0,0.0,0.0,11.0,208.0,0.0,0.0,0.43474140763282776,-5.55,19.265666,18.0,11.0,0.0006981317007977319,-0.031888533383607864,0.0,0.0,0.00017453292519943296,1500.0,-0.02885894663631916,0.0,19.225975,0.0,0.0,1500.0,0.0,0.0,1.6432818174362183,2.6570892532361676,,,,,,,,,
2.499952999999998,51.4594119,0.0,-0.4994010329246521,0.0,-0.026292061433196068,0.0,-0.0038852824363857508,0.0,0.0,0.00942477796076938,0.1153662635568252,-2.7913074,0.0010471975511965976,-9.693093299865723,3.0,403.0,1500.0,-3.0,0.0,0.0,0.0,0.0,11.0,208.0,0.0,0.0,0.43476009368896484,-5.59,19.365615,18.0,11.0,0.0008726646259971648,-0.03335510939359665,0.0,0.0,0.00034906585039886593,1500.0,-0.02602129988372326,0.0,19.345644,0.0,0.0,1500.0,0.0,0.0,1.6484674215316772,2.6569147203109678,,,,,,,,,
2.599974999999997,51.4594119,0.0,-0.6178157329559326,0.0,-0.002636985620483756,0.0,-0.00347583694383502,0.0,0.0,0.009075712110370514,0.1153662635568252,-2.7913074,0.0010471975511965976,-9.698848724365234,3.0,403.0,1500.0,-3.0,0.0,0.0,0.0,0.0,11.0,208.0,0.0,0.0,0.4336627721786499,-5.59,19.465636999999997,18.0,11.0,0.0008726646259971648,-0.03461979702115059,0.0,0.0,0.00034906585039886593,1500.0,-0.02236119657754898,0.0,19.425995,0.0,0.0,1500.0,0.0,0.0,1.6317963600158691,2.6567401873857683,,,,,,,,,
2.69998,51.4594118,0.0,-0.5302918553352356,0.0,0.01271212287247181,0.0,-0.0019497310277074575,0.0,0.0,0.008377580409572781,0.11519173063162576,-2.7913074,0.0012217304763960308,-9.697587013244629,3.0,403.0,1500.0,-3.0,0.0,0.0,0.0,0.0,11.0,208.0,0.0,0.0,0.4349965751171112,-5.62,19.565642,18.0,11.0,0.0008726646259971648,-0.03476011008024216,0.0,0.0,0.00034906585039886593,1500.0,-0.017876289784908295,0.0,19.546198,0.0,0.0,1500.0,0.0,0.0,1.6380597352981567,2.6565656544605694,,,,,,,,,
2.7999699999999983,51.4594118,0.0,-0.6023703217506409,0.0,-0.006304170470684767,0.0,-0.0015995014691725373,0.0,0.0,0.00820304748437335,0.11501719770642631,-2.7913074,0.0012217304763960308,-9.691804885864258,3.0,403.0,1500.0,-3.0,0.0,0.0,0.0,0.0,11.0,208.0,0.0,0.0,0.4374573230743408,-5.62,19.665632,18.0,11.0,0.0008726646259971648,-0.03409779816865921,0.0,0.0,0.00034906585039886593,1500.0,-0.015779947862029076,0.0,19.62641,0.0,0.0,1500.0,0.0,0.0,1.6353412866592407,2.6565656544605694,,,,,,,,,
2.899958999999999,51.4594117,0.0,-0.5148464441299438,0.0,0.021690044552087784,0.0,-0.0004206555022392422,0.0,0.0,0.008028514559173916,0.11501719770642631,-2.7913075,0.0013962634015954637,-9.673026084899902,3.0,403.0,1500.0,-3.0,0.0,0.0,0.0,0.0,11.0,208.0,0.0,0.0,0.442740261554718,-5.64,19.765621,19.0,11.0,0.0008726646259971648,-0.032629773020744324,0.0,0.0,0.00034906585039886593,1500.0,-0.011556909419596195,0.0,19.745787999999997,0.0,0.0,1500.0,0.0,0.0,1.6521320343017578,2.65621658861017,,,,,,,,,
2.9999779999999987,51.4594117,0.0,-0.4788071811199188,0.0,0.0197687279433012,0.0,-3.109485260210931e-05,0.0,0.0,0.007853981633974483,0.11484266478122689,-2.7913075,0.0013962634015954637,-9.68858814239502,3.0,403.0,1500.0,-3.0,0.0,0.0,0.0,0.0,11.0,208.0,0.0,0.0,0.4467299282550812,-5.64,19.86564,19.0,11.0,0.0008726646259971648,-0.03125390037894249,0.0,0.0,0.00034906585039886593,1500.0,-0.007805887144058943,0.0,19.825965999999998,0.0,0.0,1500.0,0.0,0.0,1.6553711891174316,2.65621658861017,,,,,,,,,
3.099988999999997,51.459411599999996,0.0,-0.4118771553039551,0.0,-0.009981079958379269,0.0,0.00011961910786340013,0.0,0.0,0.00767944870877505,0.11484266478122689,-2.7913075,0.0013962634015954637,-9.693549156188965,3.0,403.0,1500.0,-3.0,0.0,0.0,0.0,0.0,11.0,208.0,0.0,0.0,0.45113426446914673,-5.67,19.965650999999998,19.0,11.0,0.0008726646259971648,-0.030170179903507233,0.0,0.0,0.00034906585039886593,1500.0,-0.0026244092732667923,0.0,19.945838,0.0,0.0,1500.0,0.0,0.0,1.635385513305664,2.6560420556849706,,,,,,,,,
3.199976999999997,51.459411599999996,0.0,-0.4942525625228882,0.0,-0.028954215347766876,0.0,0.0011895158095285296,0.0,0.0,0.007330382858376184,0.11484266478122689,-2.7913075,0.0013962634015954637,-9.67045783996582,3.0,403.0,1500.0,-3.0,0.0,0.0,0.0,0.0,11.0,208.0,0.0,0.0,0.4520396292209625,-5.67,20.065638999999997,19.0,11.0,0.0008726646259971648,-0.031655993312597275,0.0,0.0,0.00034906585039886593,1500.0,-0.008371607400476933,0.0,20.026612999999998,0.0,0.0,1500.0,0.0,0.0,1.6648280620574951,2.6558675227597717,,,,,,,,,
3.3002819999999993,51.459411599999996,0.0,-0.42732253670692444,0.0,0.2849358916282654,0.0,0.006584073416888714,0.0,0.0,0.00767944870877505,0.11466813185602745,-2.7913077,0.0013962634015954637,-9.765156745910645,3.0,403.0,1500.0,-3.0,0.0,0.0,0.0,0.0,11.0,208.0,0.0,0.0,0.4517238736152649,-5.69,20.165944,19.0,11.0,0.0006981317007977319,-0.03206818923354149,0.0,0.0,0.00034906585039886593,1500.0,0.012109971605241299,0.0,20.145823,0.0,0.0,1500.0,0.0,0.0,1.5861940383911133,2.655692989834572,,,,,,,,,
3.399998,51.459411599999996,0.0,-0.6487064957618713,0.0,-0.35434168577194214,0.0,-0.0038845364470034838,0.0,0.0,0.007853981633974483,0.11466813185602745,-2.7913077,0.0015707963267948964,-9.720603942871094,3.0,403.0,1500.0,-3.0,0.0,0.0,0.0,0.0,11.0,208.0,0.0,0.0,0.45070138573646545,-5.69,20.26566,19.0,11.0,0.0006981317007977319,-0.032190773636102676,0.0,0.0,0.00034906585039886593,1500.0,-0.0051022176630795,0.0,20.225924,0.0,0.0,1500.0,0.0,0.0,1.6413860321044922,2.655692989834572,,,,,,,,,
3.499959999999998,51.459411599999996,0.0,-0.7053396105766296,0.0,0.21259218454360962,0.0,0.001817085430957377,0.0,0.0,0.007155849933176752,0.11466813185602745,-2.791308,0.0015707963267948964,-9.688268661499023,3.0,403.0,1500.0,-3.0,0.0,0.0,0.0,0.0,11.0,208.0,0.0,0.0,0.4513251483440399,-5.7,20.365622,19.0,11.0,0.0006981317007977319,-0.03275252506136894,0.0,0.0,0.00034906585039886593,1500.0,0.009462174959480762,0.0,20.345651999999998,0.0,0.0,1500.0,0.0,0.0,1.6392724514007568,2.6558675227597717,,,,,,,,,
3.5998529999999995,51.459411599999996,0.0,-0.5560341477394104,0.0,-0.04798224940896034,0.0,0.0015376994851976633,0.0,0.0,0.008028514559173916,0.11449359893082803,-2.791308,0.0015707963267948964,-9.681368827819824,3.0,403.0,1500.0,-3.0,0.0,0.0,0.0,0.0,11.0,208.0,0.0,0.0,0.4559899866580963,-5.7,20.465515,19.0,11.0,0.0006981317007977319,-0.031447868794202805,0.0,0.0,0.00034906585039886593,1500.0,0.008933918550610542,0.0,20.426012,0.0,0.0,1500.0,0.0,0.0,1.6669944524765015,2.655692989834572,,,,,,,,,
3.700016999999999,51.459411599999996,0.0,-0.48910412192344666,0.0,-0.03951787203550339,0.0,0.0006995071889832616,0.0,0.0,0.00767944870877505,0.11449359893082803,-2.7913082,0.0015707963267948964,-9.700859069824219,3.0,403.0,1500.0,-3.0,0.0,0.0,0.0,0.0,11.0,208.0,0.0,0.0,0.46541985869407654,-5.74,20.565679,19.0,11.0,0.0005235987755982988,-0.027507083490490913,0.0,0.0,0.00034906585039886593,1500.0,0.010246139019727707,0.0,20.546257,0.0,0.0,1500.0,0.0,0.0,1.6501171588897705,2.6558675227597717,,,,,,,,,
3.800017999999998,51.459411599999996,0.0,-0.5560341477394104,0.0,0.08990377187728882,0.0,0.002453265944495797,0.0,0.0,0.007504915783575617,0.11449359893082803,-2.7913082,0.0015707963267948964,-9.698596000671387,3.0,403.0,1500.0,-3.0,0.0,0.0,0.0,0.0,11.0,208.0,0.0,0.0,0.47037214040756226,-5.74,20.66568,19.0,11.0,0.0005235987755982988,-0.025309009477496147,0.0,0.0,0.00034906585039886593,1500.0,0.0157388336956501,0.0,20.626461,0.0,0.0,1500.0,0.0,0.0,1.6406848430633545,2.6560420556849706,,,,,,,,,
3.8999859999999984,51.4594117,0.0,-0.5508856773376465,0.0,-0.06392104923725128,0.0,0.0011844359105452895,0.0,0.0,0.00767944870877505,0.11449359893082803,-2.7913083,0.0015707963267948964,-9.684309005737305,3.0,403.0,1500.0,-3.0,0.0,0.0,0.0,0.0,11.0,208.0,0.0,0.0,0.47650396823883057,-5.75,20.765648,19.0,11.0,0.0005235987755982988,-0.02341018244624138,0.0,0.0,0.00034906585039886593,1500.0,0.015220314264297485,0.0,20.745889,0.0,0.0,1500.0,0.0,0.0,1.6747145652770996,2.6560420556849706,,,,,,,,,
3.9999839999999978,51.4594117,0.0,-0.5766280293464661,0.0,-0.029804788529872894,0.0,0.00030454379157163203,0.0,0.0,0.007504915783575617,0.11449359893082803,-2.7913083,0.0015707963267948964,-9.683394432067871,3.0,403.0,1500.0,-3.0,0.0,0.0,0.0,0.0,11.0,208.0,0.0,0.0,0.48055604100227356,-5.75,20.865645999999998,19.0,11.0,0.0005235987755982988,-0.022516516968607903,0.0,0.0,0.00034906585039886593,1500.0,0.014725754037499428,0.0,20.825957,0.0,0.0,1500.0,0.0,0.0,1.6434290409088135,2.65621658861017,,,,,,,,,
4.099961999999998,51.4594117,0.0,-0.6023703217506409,0.0,0.05630437657237053,0.0,0.0004509067803155631,0.0,0.0,0.007853981633974483,0.11449359893082803,-2.7913083999999997,0.0015707963267948964,-9.67482852935791,3.0,403.0,1500.0,-3.0,0.0,0.0,0.0,0.0,11.0,208.0,0.0,0.0,0.48685353994369507,-5.7700000000000005,20.965624,19.0,11.0,0.00034906585039886593,-0.020231585949659348,0.0,0.0,0.00034906585039886593,1500.0,0.01782573014497757,0.0,20.94569,0.0,0.0,1500.0,0.0,0.0,1.6449100971221924,2.65639112153537,,,,,,,,,
4.199964999999999,51.4594117,0.0,-0.5766280293464661,0.0,-0.07319527119398117,0.0,-0.0011110537452623248,0.0,0.0,0.00820304748437335,0.11449359893082803,-2.7913083999999997,0.0015707963267948964,-9.679384231567383,3.0,403.0,1500.0,-3.0,0.0,0.0,0.0,0.0,11.0,208.0,0.0,0.0,0.49180153012275696,-5.7700000000000005,21.065627,19.0,11.0,0.00034906585039886593,-0.017993593588471413,0.0,0.0,0.00034906585039886593,1500.0,0.016699885949492455,0.0,21.026488999999998,0.0,0.0,1500.0,0.0,0.0,1.6503961086273193,2.65639112153537,,,,,,,,,
4.299965999999998,51.4594117,0.0,-0.6075187921524048,0.0,-0.025446996092796326,0.0,-0.0015314471675083041,0.0,0.0,0.007853981633974483,0.11449359893082803,-2.7913085,0.0015707963267948964,-9.694697380065918,3.0,403.0,1500.0,-3.0,0.0,0.0,0.0,0.0,11.0,208.0,0.0,0.0,0.4998498260974884,-5.8,21.165627999999998,19.0,11.0,0.00034906585039886593,-0.014231681823730469,0.0,0.0,0.00034906585039886593,1500.0,0.019991477951407433,0.0,21.145659,0.0,0.0,1500.0,0.0,0.0,1.6584711074829102,2.6567401873857683,,,,,,,,,
4.399934999999999,51.4594117,0.0,-0.6281126737594604,0.0,0.05695931613445282,0.0,-0.00048522473662160337,0.0,0.0,0.007155849933176752,0.11431906600562858,-2.7913085,0.0015707963267948964,-9.68895149230957,3.0,403.0,1500.0,-3.0,0.0,0.0,0.0,0.0,11.0,208.0,0.0,0.0,0.5055627226829529,-5.8,21.265597,19.0,11.0,0.00017453292519943296,-0.012325137853622437,0.0,0.0,0.00034906585039886593,1500.0,0.021908337250351906,0.0,21.225979,0.0,0.0,1500.0,0.0,0.0,1.6440458297729492,2.6569147203109678,,,,,,,,,
4.499979999999997,51.4594117,0.0,-0.4994010329246521,0.0,0.023490333929657936,0.0,-0.0007039634510874748,0.0,0.0,0.006806784082777886,0.11431906600562858,-2.7913087,0.0015707963267948964,-9.690896987915039,3.0,403.0,1500.0,-3.0,0.0,0.0,0.0,0.0,11.0,208.0,0.0,0.0,0.5153181552886963,-5.8500000000000005,21.365641999999998,19.0,11.0,0.00017453292519943296,-0.008734513074159622,0.0,0.0,0.00034906585039886593,1500.0,0.020061470568180084,0.0,21.345696,0.0,0.0,1500.0,0.0,0.0,1.6327686309814453,2.6572637861613666,,,,,,,,,
4.599961,51.4594117,0.0,-0.669300377368927,0.0,-0.025864670053124428,0.0,-0.0016664068680256605,0.0,0.0,0.0066322511575784525,0.11431906600562858,-2.7913087,0.0015707963267948964,-9.67790412902832,3.0,403.0,1500.0,-3.0,0.0,0.0,0.0,0.0,11.0,208.0,0.0,0.0,0.5207498669624329,-5.8500000000000005,21.465623,19.0,11.0,0.00017453292519943296,-0.007007097825407982,0.0,0.0,0.00034906585039886593,1500.0,0.01792602241039276,0.0,21.425981,0.0,0.0,1500.0,0.0,0.0,1.6416923999786377,2.657438319086566,,,,,,,,,
4.6999379999999995,51.4594117,0.0,-0.504549503326416,0.0,-0.008926896378397942,0.0,-0.001448117895051837,0.0,0.0,0.006806784082777886,0.11431906600562858,-2.7913088,0.0015707963267948964,-9.691011428833008,3.0,403.0,1500.0,-3.0,0.0,0.0,0.0,0.0,11.0,208.0,0.0,0.0,0.528832733631134,-5.87,21.5656,19.0,11.0,0.00017453292519943296,-0.0037584775127470493,0.0,0.0,0.00034906585039886593,1500.0,0.01974552869796753,0.0,21.546207,0.0,0.0,1500.0,0.0,0.0,1.6535433530807495,2.657438319086566,,,,,,,,,
4.799997999999999,51.4594117,0.0,-0.5251433849334717,0.0,0.07238179445266724,0.0,-0.0009474706021137536,0.0,0.0,0.0066322511575784525,0.11431906600562858,-2.7913088,0.0015707963267948964,-9.699440956115723,3.0,403.0,1500.0,-3.0,0.0,0.0,0.0,0.0,11.0,208.0,0.0,0.0,0.5338493585586548,-5.87,21.66566,19.0,11.0,0.00017453292519943296,-0.0026973842177540064,0.0,0.0,0.00034906585039886593,1500.0,0.016152873635292053,0.0,21.626500999999998,0.0,0.0,1500.0,0.0,0.0,1.5980106592178345,2.657438319086566,,,,,,,,,
4.899987999999997,51.4594117,0.0,-0.6898941993713379,0.0,-0.10950180888175964,0.0,0.00021326086425688118,0.0,0.0,0.008377580409572781,0.11466813185602745,-2.7913088,0.0013962634015954637,-9.649714469909668,3.0,403.0,1500.0,-3.0,0.0,0.0,0.0,0.0,11.0,208.0,0.0,0.0,0.5383259057998657,-5.89,21.765649999999997,19.0,11.0,0.00017453292519943296,-0.0016963082598522305,0.0,0.0,0.00034906585039886593,1500.0,0.016502292826771736,0.0,21.745881999999998,0.0,0.0,1500.0,0.0,0.0,1.8042666912078857,2.6572637861613666,,,,,,,,,
4.999983999999998,51.4594117,0.0,-0.46336179971694946,0.0,0.02046961896121502,0.0,-0.001861285767517984,0.0,0.0,0.008028514559173916,0.11466813185602745,-2.7913088,0.0013962634015954637,-9.670877456665039,3.0,403.0,1500.0,-3.0,0.0,0.0,0.0,0.0,11.0,208.0,0.0,0.0,0.5423598289489746,-5.89,21.865645999999998,19.0,11.0,0.00017453292519943296,-0.000331803341396153,0.0,0.0,0.00034906585039886593,1500.0,0.02085070312023163,0.0,21.826003999999998,0.0,0.0,1500.0,0.0,0.0,1.654932975769043,2.657438319086566,,,,,,,,,
5.099959999999999,51.4594117,0.0,-0.6795973181724548,0.0,-0.06142047420144081,0.0,-0.0022337257396429777,0.0,0.0,0.007853981633974483,0.11466813185602745,-2.7913088999999998,0.0013962634015954637,-9.68185043334961,3.0,403.0,1500.0,-3.0,0.0,0.0,0.0,0.0,11.0,208.0,0.0,0.0,0.5476171970367432,-5.92,21.965622,19.0,11.0,0.0,0.0015816609375178814,0.0,0.0,0.00034906585039886593,1500.0,0.020859403535723686,0.0,21.946026999999997,0.0,0.0,1500.0,0.0,0.0,1.6691298484802246,2.657787384936965,,,,,,,,,
5.199873,51.4594117,0.0,-0.5560341477394104,0.0,0.07028187066316605,0.0,-0.0012524727499112487,0.0,0.0,0.006981317007977318,0.11449359893082803,-2.7913088999999998,0.0013962634015954637,-9.696051597595215,3.0,403.0,1500.0,-3.0,0.0,0.0,0.0,0.0,11.0,208.0,0.0,0.0,0.5509687066078186,-5.92,22.065535,19.0,11.0,0.0,0.0023900081869214773,0.0,0.0,0.00034906585039886593,1500.0,0.021807998418807983,0.0,22.026505,0.0,0.0,1500.0,0.0,0.0,1.6146621704101562,2.6579619178621643,,,,,,,,,
5.299952999999999,51.4594117,0.0,-0.6075187921524048,0.0,-0.03665564954280853,0.0,-0.0010881766211241484,0.0,0.0,0.006981317007977318,0.11449359893082803,-2.7913091999999997,0.0013962634015954637,-9.687145233154297,3.0,403.0,1500.0,-3.0,0.0,0.0,0.0,0.0,11.0,208.0,0.0,0.0,0.5569839477539062,-5.94,22.165615,19.0,11.0,0.0,0.0040791770443320274,0.0,0.0,0.00034906585039886593,1500.0,0.01837732084095478,0.0,22.145688999999997,0.0,0.0,1500.0,0.0,0.0,1.6498287916183472,2.658136450787364,,,,,,,,,
5.399984,51.4594117,0.0,-0.6281126737594604,0.0,0.01853334717452526,0.0,-0.0005085486336611211,0.0,0.0,0.006806784082777886,0.11449359893082803,-2.7913091999999997,0.0013962634015954637,-9.690863609313965,3.0,403.0,1500.0,-3.0,0.0,0.0,0.0,0.0,11.0,208.0,0.0,0.0,0.5606237053871155,-5.94,22.265646,19.0,11.0,0.0,0.005044818855822086,0.0,0.0,0.00034906585039886593,1500.0,0.01978074572980404,0.0,22.225966,0.0,0.0,1500.0,0.0,0.0,1.6401960849761963,2.6583109837125636,,,,,,,,,
5.499952999999998,51.4594118,0.0,-0.592073380947113,0.0,-0.024157237261533737,0.0,-0.0012083639157935977,0.0,0.0,0.006981317007977318,0.11466813185602745,-2.7913093,0.0013962634015954637,-9.701033592224121,3.0,403.0,1500.0,-3.0,0.0,0.0,0.0,0.0,11.0,208.0,0.0,0.0,0.5668699145317078,-5.97,22.365615,19.0,11.0,0.0,0.00662895618006587,0.0,0.0,0.00034906585039886593,1500.0,0.01750916615128517,0.0,22.345734,0.0,0.0,1500.0,0.0,0.0,1.640085220336914,2.6584855166377626,,,,,,,,,
5.599962999999999,51.4594118,0.0,-0.6487064957618713,0.0,0.020255520939826965,0.0,-0.00018386229930911213,0.0,0.0,0.006981317007977318,0.11466813185602745,-2.7913093,0.0013962634015954637,-9.690834999084473,3.0,403.0,1500.0,-3.0,0.0,0.0,0.0,0.0,11.0,208.0,0.0,0.0,0.5710803270339966,-5.97,22.465625,19.0,11.0,0.0,0.007808849681168795,0.0,0.0,0.00034906585039886593,1500.0,0.0194074809551239,0.0,22.425998,0.0,0.0,1500.0,0.0,0.0,1.642012119293213,2.6584855166377626,,,,,,,,,
5.700112999999998,51.4594119,0.0,-0.5302918553352356,0.0,0.0015347963199019432,0.0,-0.0003843525191769004,0.0,0.0,0.006981317007977318,0.11466813185602745,-2.7913094999999997,0.0013962634015954637,-9.699085235595703,3.0,403.0,1500.0,-3.0,0.0,0.0,0.0,0.0,11.0,208.0,0.0,0.0,0.5778230428695679,-6.0,22.565775,19.0,11.0,0.0,0.009690579026937485,0.0,0.0,0.00034906585039886593,1500.0,0.017201846465468407,0.0,22.546255,0.0,0.0,1500.0,0.0,0.0,1.6456880569458008,2.6586600495629624,,,,,,,,,
5.8001819999999995,51.4594119,0.0,-0.5148464441299438,0.0,0.014163235202431679,0.0,6.201976793818176e-05,0.0,0.0,0.006981317007977318,0.11466813185602745,-2.7913094999999997,0.0013962634015954637,-9.69014835357666,3.0,403.0,1500.0,-3.0,0.0,0.0,0.0,0.0,11.0,208.0,0.0,0.0,0.5814514756202698,-6.0,22.665844,19.0,11.0,0.0,0.010298550128936768,0.0,0.0,0.00034906585039886593,1500.0,0.017456049099564552,0.0,22.626428999999998,0.0,0.0,1500.0,0.0,0.0,1.657815933227539,2.658834582488162,,,,,,,,,
5.899977999999997,51.459412,0.0,-0.48395565152168274,0.0,-0.0036478012334555387,0.0,0.00018595920118968934,0.0,0.0,0.007155849933176752,0.11484266478122689,-2.7913097,0.0013962634015954637,-9.67748737335205,3.0,403.0,1500.0,-3.0,0.0,0.0,0.0,0.0,11.0,208.0,0.0,0.0,0.5835188627243042,-6.0200000000000005,22.765639999999998,19.0,11.0,0.0,0.01024982612580061,0.0,0.0,0.00034906585039886593,1500.0,0.016465088352560997,0.0,22.745713,0.0,0.0,1500.0,0.0,0.0,1.6522812843322754,2.658834582488162,,,,,,,,,
5.999872,51.459412,0.0,-0.5199949145317078,0.0,0.012307115830481052,0.0,-3.105716314166784e-05,0.0,0.0,0.007155849933176752,0.11484266478122689,-2.7913097,0.0013962634015954637,-9.693400382995605,3.0,403.0,1500.0,-3.0,0.0,0.0,0.0,0.0,11.0,208.0,0.0,0.0,0.582662045955658,-6.0200000000000005,22.865534,19.0,11.0,0.0,0.009461711160838604,0.0,0.0,0.00034906585039886593,1500.0,0.016389895230531693,0.0,22.825996,0.0,0.0,1500.0,0.0,0.0,1.6494271755218506,2.659009115413361,,,,,,,,,
6.099982999999998,51.459412099999994,0.0,-0.5508856773376465,0.0,0.00426341500133276,0.0,6.851987564004958e-05,0.0,0.0,0.007155849933176752,0.11484266478122689,-2.7913098,0.0013962634015954637,-9.680627822875977,3.0,403.0,1500.0,-3.0,0.0,0.0,0.0,0.0,11.0,208.0,0.0,0.0,0.5792334079742432,-6.03,22.965645,19.0,11.0,0.0,0.007407291792333126,0.0,0.0,0.00034906585039886593,1500.0,0.016031650826334953,0.0,22.945732,0.0,0.0,1500.0,0.0,0.0,1.648030400276184,2.659009115413361,,,,,,,,,
6.199873999999998,51.459412099999994,0.0,-0.5869249105453491,0.0,0.010786662809550762,0.0,0.00019524314848240465,0.0,0.0,0.007155849933176752,0.11484266478122689,-2.7913098,0.0013962634015954637,-9.68871784210205,3.0,403.0,1500.0,-3.0,0.0,0.0,0.0,0.0,11.0,208.0,0.0,0.0,0.5767800807952881,-6.03,23.065535999999998,19.0,11.0,0.0,0.005621601361781359,0.0,0.0,0.00034906585039886593,1500.0,0.01605335809290409,0.0,23.026605,0.0,0.0,1500.0,0.0,0.0,1.650177240371704,2.659009115413361,,,,,,,,,
6.299864999999997,51.459412199999996,0.0,-0.6229642033576965,0.0,0.006752926856279373,0.0,0.0005554506205953658,0.0,0.0,0.007155849933176752,0.11501719770642631,-2.7913101,0.0013962634015954637,-9.702592849731445,3.0,403.0,1500.0,-3.0,0.0,0.0,0.0,0.0,11.0,208.0,0.0,0.0,0.5741167068481445,-6.0600000000000005,23.165526999999997,19.0,11.0,0.0,0.003462187945842743,0.0,0.0,0.00034906585039886593,1500.0,0.015553194098174572,0.0,23.145844,0.0,0.0,1500.0,0.0,0.0,1.6453521251678467,2.659009115413361,,,,,,,,,
6.39996,51.459412199999996,0.0,-0.6126672625541687,0.0,0.0014059519162401557,0.0,0.0006786303711123765,0.0,0.0,0.007330382858376184,0.11501719770642631,-2.7913101,0.0013962634015954637,-9.681535720825195,3.0,403.0,1500.0,-3.0,0.0,0.0,0.0,0.0,11.0,208.0,0.0,0.0,0.5737435221672058,-6.0600000000000005,23.265622,19.0,11.0,0.0,0.0026044868864119053,0.0,0.0,0.00034906585039886593,1500.0,0.01528463140130043,0.0,23.226042,0.0,0.0,1500.0,0.0,0.0,1.6568149328231812,2.659009115413361,,,,,,,,,
6.499953999999999,51.4594123,0.0,-0.7413788437843323,0.0,-0.00886740442365408,0.0,0.00020295081776566803,0.0,0.0,0.007330382858376184,0.11501719770642631,-2.7913102,0.0013962634015954637,-9.683466911315918,3.0,403.0,1500.0,-3.0,0.0,0.0,0.0,0.0,11.0,208.0,0.0,0.0,0.5750896334648132,-6.07,23.365616,19.0,11.0,0.0,0.0034483601339161396,0.0,0.0,0.00034906585039886593,1500.0,0.014289110898971558,0.0,23.345701,0.0,0.0,1500.0,0.0,0.0,1.6658267974853516,2.659009115413361,,,,,,,,,
6.59986,51.4594123,0.0,-0.7465273141860962,0.0,0.039783965796232224,0.0,0.0008285450749099255,0.0,0.0,0.007330382858376184,0.11501719770642631,-2.7913102,0.0013962634015954637,-9.681964874267578,3.0,403.0,1500.0,-3.0,0.0,0.0,0.0,0.0,11.0,208.0,0.0,0.0,0.578498363494873,-6.07,23.465522,19.0,11.0,0.0,0.00441884296014905,0.0,0.0,0.00034906585039886593,1500.0,0.015825890004634857,0.0,23.425967999999997,0.0,0.0,1500.0,0.0,0.0,1.652390718460083,2.659009115413361,,,,,,,,,
6.700021999999997,51.4594125,0.0,-0.592073380947113,0.0,0.0005702297203242779,0.0,-0.00017591998039279133,0.0,0.0,0.007504915783575617,0.11501719770642631,-2.7913102999999997,0.0013962634015954637,-9.689170837402344,3.0,403.0,1500.0,-3.0,0.0,0.0,0.0,0.0,11.0,208.0,0.0,0.0,0.588253915309906,-6.09,23.565683999999997,19.0,11.0,0.0,0.007582320831716061,0.0,0.0,0.00017453292519943296,1500.0,0.013959327712655067,0.0,23.546246,0.0,0.0,1500.0,0.0,0.0,1.6688389778137207,2.6591836483385607,,,,,,,,,
6.799963999999999,51.4594125,0.0,-0.6950426697731018,0.0,-0.027606699615716934,0.0,-0.0008628960349597037,0.0,0.0,0.00767944870877505,0.11501719770642631,-2.7913102999999997,0.0013962634015954637,-9.678141593933105,3.0,403.0,1500.0,-3.0,0.0,0.0,0.0,0.0,11.0,208.0,0.0,0.0,0.5948704481124878,-6.09,23.665626,19.0,11.0,0.0,0.009778114035725594,0.0,0.0,0.00017453292519943296,1500.0,0.013998549431562424,0.0,23.626481,0.0,0.0,1500.0,0.0,0.0,1.6404632329940796,2.6591836483385607,,,,,,,,,
6.899971999999998,51.4594125,0.0,-0.6332611441612244,0.0,0.011972488835453987,0.0,-0.00023554437211714685,0.0,0.0,0.007504915783575617,0.11501719770642631,-2.7913104,0.0013962634015954637,-9.699488639831543,3.0,444.0,1500.0,-3.0,0.0,0.0,0.0,0.0,11.0,197.0,0.0,0.0,0.604181170463562,-6.11,23.765634,19.0,11.0,0.0,0.01255587488412857,0.0,0.0,0.00017453292519943296,1500.0,0.013418721035122871,0.0,23.745894999999997,0.0,0.0,1500.0,0.0,0.0,1.6435250043869019,2.6591836483385607,,,,,,,,,
6.999969999999998,51.4594125,0.0,-0.6435580253601074,0.0,0.015906888991594315,0.0,0.00034070078982040286,0.0,0.0,0.007504915783575617,0.11501719770642631,-2.7913104,0.0013962634015954637,-9.686105728149414,3.0,444.0,1500.0,-3.0,0.0,0.0,0.0,0.0,11.0,197.0,0.0,0.0,0.6099915504455566,-6.11,23.865631999999998,19.0,11.0,0.0,0.013840903528034687,0.0,0.0,0.00017453292519943296,1500.0,0.013553149066865444,0.0,23.826048,0.0,0.0,1500.0,0.0,0.0,1.6500346660614014,2.6591836483385607,,,,,,,,,
7.099976999999999,51.4594126,0.0,-0.7671211957931519,0.0,-0.02610582858324051,0.0,-0.00023938568483572453,0.0,0.0,0.007504915783575617,0.11501719770642631,-2.7913106,0.0013962634015954637,-9.682847023010254,3.0,444.0,1500.0,-3.0,0.0,0.0,-0.013871862553060055,0.0,11.0,197.0,0.011131884530186653,0.0,0.6167572736740112,-6.12,23.965639,19.0,11.0,0.0,0.015466057695448399,0.0,0.0,0.00017453292519943296,1500.0,0.012275771237909794,0.0,23.945732,0.0,0.0,1500.0,0.0,0.0,1.6503334045410156,2.6591836483385607,,,,,,,,,
7.199949999999998,51.4594126,0.0,-0.6898941993713379,0.0,0.03208078444004059,0.0,0.00017002841923385859,0.0,0.0,0.007504915783575617,0.11501719770642631,-2.7913106,0.0013962634015954637,-9.692066192626953,3.0,444.0,1500.0,-3.0,0.0,0.0,-0.013871862553060055,0.0,11.0,197.0,0.011131884530186653,0.0,0.6202841401100159,-6.12,24.065611999999998,19.0,11.0,0.0,0.016431035473942757,0.0,0.0,0.00017453292519943296,1500.0,0.013690384104847908,0.0,24.026522,0.0,0.0,1500.0,0.0,0.0,1.6417837142944336,2.65935818126376,,,,,,,,,
7.30002,51.459412699999994,0.0,-0.5405887365341187,0.0,0.023273831233382225,0.0,0.0005301740020513535,0.0,0.0,0.007504915783575617,0.11501719770642631,-2.7913107,0.0013962634015954637,-9.685062408447266,3.0,444.0,1500.0,-3.0,0.0,0.0,-0.020807795226573944,0.0,11.0,197.0,0.022263769060373306,0.0,0.6244807839393616,-6.15,24.165682,19.0,11.0,0.0,0.016909664496779442,0.0,0.0,0.00017453292519943296,1500.0,0.013867502100765705,0.0,24.145842,0.0,0.0,1500.0,0.0,0.0,1.6366827487945557,2.65935818126376,,,,,,,,,
7.399987999999997,51.459412699999994,0.0,-0.6487064957618713,0.0,0.0002204465854447335,0.0,0.00010477665637154132,0.0,0.0,0.007504915783575617,0.11501719770642631,-2.7913107,0.0013962634015954637,-9.703286170959473,3.0,444.0,1500.0,-3.0,0.0,0.0,-0.020807795226573944,0.0,11.0,197.0,0.022263769060373306,0.0,0.6267027854919434,-6.15,24.265649999999997,19.0,11.0,0.0,0.016656851395964622,0.0,0.0,0.00017453292519943296,1500.0,0.013488555327057838,0.0,24.226017,0.0,0.0,1500.0,0.0,0.0,1.6515536308288574,2.65935818126376,,,,,,,,,
7.500406999999999,51.459412799999996,0.0,-0.6950426697731018,0.0,0.012546992860734463,0.0,0.00043352870852686465,0.0,0.0,0.007504915783575617,0.11484266478122689,-2.7913107999999998,0.0013962634015954637,-9.692068099975586,3.0,444.0,1500.0,-3.0,0.0,0.0,-0.02774372510612011,0.0,11.0,197.0,0.03339565545320511,0.0,0.6293225884437561,-6.18,24.366069,19.0,11.0,0.0,0.015987470746040344,0.0,0.0,0.00017453292519943296,1500.0,0.01428193598985672,0.0,24.345651999999998,0.0,0.0,1500.0,0.0,0.0,1.6397150754928589,2.65935818126376,,,,,,,,,
7.599874999999997,51.459412799999996,0.0,-0.7413788437843323,0.0,0.010884555988013744,0.0,0.0007632914348505437,0.0,0.0,0.007504915783575617,0.11484266478122689,-2.7913107999999998,0.0013962634015954637,-9.693020820617676,3.0,444.0,1500.0,-3.0,0.0,0.0,-0.02774372510612011,0.0,11.0,197.0,0.03339565545320511,0.0,0.636996865272522,-6.18,24.465536999999998,19.0,11.0,0.0,0.0184453297406435,0.0,0.0,0.00017453292519943296,1500.0,0.013679804280400276,0.0,24.426035,0.0,0.0,1500.0,0.0,0.0,1.6520893573760986,2.65935818126376,,,,,,,,,
7.700553999999997,51.4594129,0.0,-0.756824254989624,0.0,0.005395355634391308,0.0,0.0005600646254606545,0.0,0.0,0.00767944870877505,0.11484266478122689,-2.791311,0.0013962634015954637,-9.683101654052734,3.0,444.0,1500.0,-3.0,0.0,0.0,-0.04161559045314789,0.0,11.0,197.0,0.04452753812074661,0.0,0.6459265947341919,-6.21,24.566215999999997,19.0,11.0,0.0,0.021074246615171432,0.0,0.0,0.00017453292519943296,1500.0,0.013013982214033604,0.0,24.54625,0.0,0.0,1500.0,0.0,0.0,1.6451282501220703,2.65935818126376,,,,,,,,,
7.799965999999998,51.4594129,0.0,-0.669300377368927,0.0,0.002574414014816284,0.0,0.00021258986089378595,0.0,0.0,0.00767944870877505,0.11484266478122689,-2.791311,0.0013962634015954637,-9.685025215148926,3.0,444.0,1500.0,-3.0,0.0,0.0,-0.04161559045314789,0.0,11.0,197.0,0.04452753812074661,0.0,0.6560912132263184,-6.21,24.665627999999998,19.0,11.0,0.0,0.02463401108980179,0.0,0.0,0.00017453292519943296,1500.0,0.012630386278033257,0.0,24.626535999999998,0.0,0.0,1500.0,0.0,0.0,1.6539742946624756,2.65935818126376,,,,,,,,,
7.90043,51.4594131,0.0,-0.5508856773376465,0.0,-0.005028713494539261,0.0,-0.0007675006054341793,0.0,0.0,0.007853981633974483,0.11484266478122689,-2.7913110999999997,0.0013962634015954637,-9.682888984680176,3.0,444.0,1500.0,-3.0,0.0,0.0,-0.0485515221953392,0.0,11.0,197.0,0.06679131090641022,0.0,0.668060302734375,-6.21,24.766092,19.0,11.0,0.0,0.027223607525229454,0.0,0.0,0.00017453292519943296,1500.0,0.0123217161744833,0.0,24.745791999999998,0.0,0.0,1500.0,0.0,0.0,1.6526076793670654,2.65935818126376,,,,,,,,,
7.999970999999999,51.4594131,0.0,-0.7465273141860962,0.0,-0.010945665650069714,0.0,-0.000981709104962647,0.0,0.0,0.007853981633974483,0.11484266478122689,-2.7913110999999997,0.0012217304763960308,-9.690723419189453,3.0,444.0,1500.0,-3.0,0.0,0.0,-0.0485515221953392,0.0,11.0,197.0,0.06679131090641022,0.0,0.6770623326301575,-6.21,24.865633,19.0,11.0,0.0,0.029780173674225807,0.0,0.0,0.00017453292519943296,1500.0,0.011300910264253616,0.0,24.826055,0.0,0.0,1500.0,0.0,0.0,1.6398100852966309,2.65935818126376,,,,,,,,,
8.100368999999997,51.4594132,0.0,-0.58177649974823,0.0,0.010581896640360355,0.0,-0.0006341772386804223,0.0,0.0,0.007853981633974483,0.11484266478122689,-2.7913113,0.0012217304763960308,-9.684383392333984,3.0,444.0,1500.0,-3.0,0.0,0.0,-0.062423381954431534,0.0,11.0,197.0,0.07792319357395172,0.0,0.6878761649131775,-6.22,24.966030999999997,19.0,11.0,0.0,0.03189023956656456,0.0,0.0,0.00017453292519943296,1500.0,0.01120966486632824,0.0,24.945686,0.0,0.0,1500.0,0.0,0.0,1.6483666896820068,2.65935818126376,,,,,,,,,
8.200011,51.4594132,0.0,-0.7156365513801575,0.0,0.00601845933124423,0.0,-0.001158482045866549,0.0,0.0,0.007853981633974483,0.11484266478122689,-2.7913113,0.0012217304763960308,-9.690007209777832,3.0,444.0,1500.0,-3.0,0.0,0.0,-0.062423381954431534,0.0,11.0,197.0,0.07792319357395172,0.0,0.6956683397293091,-6.22,25.065673,19.0,11.0,0.0,0.03374715521931648,0.0,0.0,0.00017453292519943296,1500.0,0.009835825301706791,0.0,25.026351,0.0,0.0,1500.0,0.0,0.0,1.648134708404541,2.65935818126376,,,,,,,,,
8.300536999999998,51.459413399999995,0.0,-0.592073380947113,0.0,-0.03418327495455742,0.0,-0.0014600747963413596,0.0,0.0,0.008028514559173916,0.11484266478122689,-2.7913115,0.0012217304763960308,-9.695401191711426,3.0,444.0,1500.0,-3.0,0.0,0.0,-0.07629524916410446,0.0,11.0,197.0,0.10018695890903473,0.0,0.7051347494125366,-6.23,25.166199,19.0,11.0,0.0,0.035451579838991165,0.0,0.0,0.00017453292519943296,1500.0,0.009850203059613705,0.0,25.145737999999998,0.0,0.0,1500.0,0.0,0.0,1.643385887145996,2.6591836483385607,,,,,,,,,
8.399850999999998,51.459413399999995,0.0,-0.7207850217819214,0.0,0.021157342940568924,0.0,-0.0017184136668220162,0.0,0.0,0.007853981633974483,0.11484266478122689,-2.7913115,0.0012217304763960308,-9.698539733886719,3.0,444.0,1500.0,-3.0,0.0,0.0,-0.07629524916410446,0.0,11.0,197.0,0.10018695890903473,0.0,0.7119002342224121,-6.23,25.265513,19.0,11.0,0.0,0.0365883894264698,0.0,0.0,0.00017453292519943296,1500.0,0.008979806676506996,0.0,25.226059,0.0,0.0,1500.0,0.0,0.0,1.6482460498809814,2.6591836483385607,,,,,,,,,
8.500411,51.4594135,0.0,-0.6178157329559326,0.0,0.0012960339663550258,0.0,-0.0021130694076418877,0.0,0.0,0.008028514559173916,0.11484266478122689,-2.7913117,0.0012217304763960308,-9.68631362915039,3.0,444.0,1500.0,-3.0,0.0,0.0,-0.09016711264848709,0.0,11.0,197.0,0.11131884157657623,0.0,0.7202657461166382,-6.23,25.366073,19.0,11.0,0.0,0.037489086389541626,0.0,0.0,0.00017453292519943296,1500.0,0.008861147798597813,0.0,25.345841,0.0,0.0,1500.0,0.0,0.0,1.653883695602417,2.6591836483385607,,,,,,,,,
8.599957,51.4594135,0.0,-0.6898941993713379,0.0,0.023389168083667755,0.0,-0.0022912926506251097,0.0,0.0,0.007853981633974483,0.11484266478122689,-2.7913117,0.0012217304763960308,-9.702784538269043,3.0,444.0,1500.0,-3.0,0.0,0.0,-0.09016711264848709,0.0,11.0,197.0,0.11131884157657623,0.0,0.7256723642349243,-6.23,25.465619,19.0,11.0,0.0,0.03843914717435837,0.0,0.0,0.00017453292519943296,1500.0,0.008541884832084179,0.0,25.426022999999997,0.0,0.0,1500.0,0.0,0.0,1.64780855178833,2.6591836483385607,,,,,,,,,
8.700408999999997,51.4594137,0.0,-0.7104880809783936,0.0,0.014217237941920757,0.0,-0.0029928539879620075,0.0,0.0,0.007853981633974483,0.11484266478122689,-2.7913118,0.0012217304763960308,-9.696342468261719,3.0,444.0,1500.0,-3.0,0.0,0.0,-0.0971030443906784,0.0,11.0,197.0,0.13358262181282043,0.0,0.7325997948646545,-6.22,25.566070999999997,19.0,11.0,0.0,0.03922586888074875,0.0,0.0,0.00017453292519943296,1500.0,0.007938542403280735,0.0,25.546201999999997,0.0,0.0,1500.0,0.0,0.0,1.6484272480010986,2.65935818126376,,,,,,,,,
8.800017999999998,51.4594137,0.0,-0.5766280293464661,0.0,-0.006835168227553368,0.0,-0.003588347230106592,0.0,0.0,0.008028514559173916,0.11484266478122689,-2.7913118,0.0012217304763960308,-9.699633598327637,3.0,444.0,1500.0,-3.0,0.0,0.0,-0.0971030443906784,0.0,11.0,197.0,0.13358262181282043,0.0,0.7361733317375183,-6.22,25.66568,19.0,11.0,0.0,0.039339691400527954,0.0,0.0,0.00017453292519943296,1500.0,0.007214277051389217,0.0,25.626621,0.0,0.0,1500.0,0.0,0.0,1.6517484188079834,2.65935818126376,,,,,,,,,
8.900417999999998,51.459413899999994,0.0,-0.7722696661949158,0.0,0.03607990965247154,0.0,-0.004800860304385424,0.0,0.0,0.008028514559173916,0.11484266478122689,-2.791312,0.0012217304763960308,-9.693702697753906,3.0,444.0,1500.0,-3.0,0.0,0.0,-0.11097490042448044,0.0,11.0,197.0,0.15584638714790344,0.0,0.7411440014839172,-6.22,25.76608,19.0,11.0,0.0,0.03971610590815544,0.0,0.0,0.00017453292519943296,1500.0,0.007302067708224058,0.0,25.745737,0.0,0.0,1500.0,0.0,0.0,1.6333750486373901,2.65935818126376,,,,,,,,,
8.999955999999997,51.459413899999994,0.0,-0.6281126737594604,0.0,-0.0037397018168121576,0.0,-0.004805390257388353,0.0,0.0,0.008377580409572781,0.11484266478122689,-2.791312,0.0012217304763960308,-9.695923805236816,3.0,444.0,1500.0,-3.0,0.0,0.0,-0.11097490042448044,0.0,11.0,197.0,0.15584638714790344,0.0,0.7434526681900024,-6.22,25.865617999999998,19.0,11.0,0.0,0.03885655105113983,0.0,0.0,0.00017453292519943296,1500.0,0.006857550702989101,0.0,25.82604,0.0,0.0,1500.0,0.0,0.0,1.652366042137146,2.65935818126376,,,,,,,,,
9.100434,51.4594141,0.0,-0.6795973181724548,0.0,0.010982604697346687,0.0,-0.0052193510346114635,0.0,0.0,0.00820304748437335,0.11484266478122689,-2.7913123,0.0012217304763960308,-9.695623397827148,3.0,444.0,1500.0,-3.0,0.0,0.0,-0.13178269565105438,0.0,11.0,197.0,0.17811015248298645,0.0,0.7468438148498535,-6.22,25.966096,19.0,11.0,0.0,0.037951868027448654,0.0,0.0,0.00017453292519943296,1500.0,0.006668102461844683,0.0,25.945786,0.0,0.0,1500.0,0.0,0.0,1.6442134380340576,2.659532714188959,,,,,,,,,
9.199983,51.4594141,0.0,-0.7207850217819214,0.0,-0.024270733818411827,0.0,-0.005248021334409714,0.0,0.0,0.008377580409572781,0.11466813185602745,-2.7913123,0.0012217304763960308,-9.68182373046875,3.0,444.0,1500.0,-3.0,0.0,0.0,-0.13178269565105438,0.0,11.0,197.0,0.17811015248298645,0.0,0.7481567859649658,-6.22,26.065645,19.0,11.0,0.0,0.03752967342734337,0.0,0.0,0.00017453292519943296,1500.0,0.006461263168603182,0.0,26.0266,0.0,0.0,1500.0,0.0,0.0,1.633237600326538,2.659532714188959,,,,,,,,,
9.30041,51.4594142,0.0,-0.7516757845878601,0.0,0.0330740325152874,0.0,-0.00554075138643384,0.0,0.0,0.00820304748437335,0.11466813185602745,-2.7913126999999998,0.0012217304763960308,-9.693711280822754,3.0,444.0,1500.0,-3.0,0.0,0.0,-0.15952640771865845,0.0,11.0,197.0,0.18924203515052795,0.0,0.7505321502685547,-6.22,26.166072,19.0,11.0,0.0,0.036981068551540375,0.0,0.0,0.00017453292519943296,1500.0,0.006843518000096083,0.0,26.145640999999998,0.0,0.0,1500.0,0.0,0.0,1.6620781421661377,2.659532714188959,,,,,,,,,
9.39998,51.4594142,0.0,-0.756824254989624,0.0,-0.03497485816478729,0.0,-0.006948866881430149,0.0,0.0,0.008377580409572781,0.11466813185602745,-2.7913126999999998,0.0012217304763960308,-9.698275566101074,3.0,444.0,1500.0,-3.0,0.0,0.0,-0.15952640771865845,0.0,11.0,197.0,0.18924203515052795,0.0,0.7512139081954956,-6.22,26.265642,19.0,11.0,0.0,0.0363134890794754,0.0,0.0,0.00017453292519943296,1500.0,0.00499687809497118,0.0,26.226025999999997,0.0,0.0,1500.0,0.0,0.0,1.658473014831543,2.659707247114159,,,,,,,,,
9.500409999999999,51.4594144,0.0,-0.7362303733825684,0.0,0.027878612279891968,0.0,-0.00632511917501688,0.0,0.0,0.008377580409572781,0.11466813185602745,-2.7913129,0.0012217304763960308,-9.689623832702637,3.0,444.0,1500.0,-3.0,0.0,0.0,-0.17339828610420227,0.0,11.0,197.0,0.21150580048561096,0.0,0.7528192400932312,-6.2,26.366072,19.0,11.0,0.0,0.035445984452962875,0.0,0.0,0.00017453292519943296,1500.0,0.007113335654139519,0.0,26.345685999999997,0.0,0.0,1500.0,0.0,0.0,1.646187663078308,2.659707247114159,,,,,,,,,
9.599867,51.4594144,0.0,-0.7001911401748657,0.0,-0.03289775922894478,0.0,-0.00699583301320672,0.0,0.0,0.008726646259971648,0.11466813185602745,-2.7913129,0.0012217304763960308,-9.68919563293457,3.0,444.0,1500.0,-3.0,0.0,0.0,-0.17339828610420227,0.0,11.0,197.0,0.21150580048561096,0.0,0.7520421743392944,-6.2,26.465529,19.0,11.0,0.0,0.03395455703139305,0.0,0.0,0.00017453292519943296,1500.0,0.00572399515658617,0.0,26.426021,0.0,0.0,1500.0,0.0,0.0,1.6487188339233398,2.659707247114159,,,,,,,,,
9.700564999999997,51.459414599999995,0.0,-0.7156365513801575,0.0,0.019017018377780914,0.0,-0.006107129622250795,0.0,0.0,0.008552113334772215,0.11466813185602745,-2.7913129,0.0012217304763960308,-9.694536209106445,3.0,444.0,1500.0,-3.0,0.0,0.0,-0.17339828610420227,0.0,11.0,197.0,0.23376958072185516,0.0,0.7519665956497192,-6.18,26.566226999999998,19.0,11.0,0.0,0.03241874650120735,0.0,0.0,0.00017453292519943296,1500.0,0.007315952330827713,0.0,26.546256999999997,0.0,0.0,1500.0,0.0,0.0,1.6515271663665771,2.659707247114159,,,,,,,,,
9.800011999999999,51.459414599999995,0.0,-0.7156365513801575,0.0,-0.01902736909687519,0.0,-0.006752884481102228,0.0,0.0,0.008552113334772215,0.11466813185602745,-2.7913129,0.0012217304763960308,-9.685531616210938,3.0,444.0,1500.0,-3.0,0.0,0.0,-0.17339828610420227,0.0,11.0,197.0,0.23376958072185516,0.0,0.7494820952415466,-6.18,26.665674,19.0,11.0,0.0,0.03107265755534172,0.0,0.0,0.00017453292519943296,1500.0,0.0061411624774336815,0.0,26.626669999999997,0.0,0.0,1500.0,0.0,0.0,1.6577699184417725,2.659707247114159,,,,,,,,,
9.900395,51.459414699999996,0.0,-0.7001911401748657,0.0,0.020177382975816727,0.0,-0.006756407208740711,0.0,0.0,0.008552113334772215,0.11466813185602745,-2.7913129999999997,0.0012217304763960308,-9.698396682739258,3.0,444.0,1500.0,-3.0,0.0,0.0,-0.18033422529697418,0.0,11.0,197.0,0.24490146338939667,0.0,0.7475229501724243,-6.16,26.766057,19.0,11.0,0.0,0.029875559732317924,0.0,0.0,0.00017453292519943296,1500.0,0.0069177523255348206,0.0,26.745682,0.0,0.0,1500.0,0.0,0.0,1.644209623336792,2.659707247114159,,,,,,,,,
9.999979,51.459414699999996,0.0,-0.6641519069671631,0.0,-0.022794097661972046,0.0,-0.007380939554423094,0.0,0.0,0.008552113334772215,0.11466813185602745,-2.7913129999999997,0.0012217304763960308,-9.69141960144043,3.0,444.0,1500.0,-3.0,0.0,0.0,-0.18033422529697418,0.0,11.0,197.0,0.24490146338939667,0.0,0.743423581123352,-6.16,26.865641,19.0,11.0,0.0,0.027212053537368774,0.0,0.0,0.00017453292519943296,1500.0,0.005715957842767239,0.0,26.826058999999997,0.0,0.0,1500.0,0.0,0.0,1.650102972984314,2.659707247114159,,,,,,,,,
10.100411999999999,51.459415,0.0,-0.7825666069984436,0.0,0.01758849248290062,0.0,-0.007060938980430365,0.0,0.0,0.008552113334772215,0.11466813185602745,-2.7913132,0.0012217304763960308,-9.694316864013672,3.0,444.0,1500.0,-3.0,0.0,0.0,-0.1942060887813568,0.0,11.0,197.0,0.2782971262931824,0.0,0.7394883036613464,-6.12,26.966074,19.0,11.0,0.0,0.02527550794184208,0.0,0.0,0.00017453292519943296,1500.0,0.006693117320537567,0.0,26.945688999999998,0.0,0.0,1500.0,0.0,0.0,1.6387444734573364,2.659532714188959,,,,,,,,,
10.199829999999999,51.459415,0.0,-0.7156365513801575,0.0,-0.01641096919775009,0.0,-0.0070907059125602245,0.0,0.0,0.008726646259971648,0.11466813185602745,-2.7913132,0.0012217304763960308,-9.682119369506836,3.0,444.0,1500.0,-3.0,0.0,0.0,-0.1942060887813568,0.0,11.0,197.0,0.2782971262931824,0.0,0.7329722046852112,-6.12,27.065492,19.0,11.0,0.0,0.02217867225408554,0.0,0.0,0.00017453292519943296,1500.0,0.005918704438954592,0.0,27.026474,0.0,0.0,1500.0,0.0,0.0,1.646683692932129,2.659532714188959,,,,,,,,,
10.300593999999997,51.4594154,0.0,-0.7362303733825684,0.0,0.030289050191640854,0.0,-0.007398120127618313,0.0,0.0,0.008377580409572781,0.11466813185602745,-2.7913134,0.0012217304763960308,-9.694954872131348,3.0,444.0,1500.0,-3.0,0.0,0.0,-0.20807793736457825,0.0,11.0,197.0,0.3228246569633484,0.0,0.7262086868286133,-6.08,27.166255999999997,19.0,11.0,0.0,0.019282421097159386,0.0,0.0,0.00017453292519943296,1500.0,0.006304314825683832,0.0,27.145847999999997,0.0,0.0,1500.0,0.0,0.0,1.6368674039840698,2.659532714188959,,,,,,,,,
10.400005999999998,51.4594154,0.0,-0.756824254989624,0.0,-0.017485253512859344,0.0,-0.007981337606906891,0.0,0.0,0.008552113334772215,0.11466813185602745,-2.7913134,0.0012217304763960308,-9.702005386352539,3.0,444.0,1500.0,-3.0,0.0,0.0,-0.20807793736457825,0.0,11.0,197.0,0.3228246569633484,0.0,0.7171042561531067,-6.08,27.265667999999998,19.0,11.0,0.0,0.015712393447756767,0.0,0.0,0.00017453292519943296,1500.0,0.005474546458572149,0.0,27.226062,0.0,0.0,1500.0,0.0,0.0,1.6405885219573975,2.659532714188959,,,,,,,,,
10.500392999999999,51.4594156,0.0,-0.834051251411438,0.0,0.0178084559738636,0.0,-0.00757625512778759,0.0,0.0,0.008377580409572781,0.11466813185602745,-2.7913136,0.0012217304763960308,-9.700637817382812,3.0,444.0,1500.0,-3.0,0.0,0.0,-0.22194980084896088,0.0,11.0,197.0,0.3450884222984314,0.0,0.7072511315345764,-6.03,27.366055,19.0,11.0,0.0,0.011128370650112629,0.0,0.0,0.00017453292519943296,1500.0,0.005782829597592354,0.0,27.345713,0.0,0.0,1500.0,0.0,0.0,1.6258081197738647,2.659707247114159,,,,,,,,,
10.599979999999999,51.4594156,0.0,-0.7001911401748657,0.0,-0.012581996619701385,0.0,-0.00707407109439373,0.0,0.0,0.008552113334772215,0.11466813185602745,-2.7913136,0.0012217304763960308,-9.690841674804688,3.0,444.0,1500.0,-3.0,0.0,0.0,-0.22194980084896088,0.0,11.0,197.0,0.3450884222984314,0.0,0.6951836943626404,-6.03,27.465642,19.0,11.0,0.0,0.006312726065516472,0.0,0.0,0.00017453292519943296,1500.0,0.004721027333289385,0.0,27.426019,0.0,0.0,1500.0,0.0,0.0,1.6410974264144897,2.659707247114159,,,,,,,,,
10.700408999999997,51.459415799999995,0.0,-0.7671211957931519,0.0,0.018312448635697365,0.0,-0.0066311839036643505,0.0,0.0,0.008377580409572781,0.11466813185602745,-2.7913136,0.0012217304763960308,-9.696418762207031,3.0,444.0,1500.0,-3.0,0.0,0.0,-0.22194980084896088,0.0,11.0,197.0,0.3673521876335144,0.0,0.6817709803581238,-6.0,27.566070999999997,19.0,11.0,0.0,0.001581930322572589,0.0,0.0,0.00017453292519943296,1500.0,0.005572116002440453,0.0,27.546291999999998,0.0,0.0,1500.0,0.0,0.0,1.6527724266052246,2.659707247114159,,,,,,,,,
10.799958999999998,51.459415799999995,0.0,-0.7671211957931519,0.0,0.0008243982447311282,0.0,-0.006940152961760759,0.0,0.0,0.008552113334772215,0.11466813185602745,-2.7913136,0.0012217304763960308,-9.818694114685059,3.0,444.0,1500.0,-3.0,0.0,0.0,-0.22194980084896088,0.0,11.0,197.0,0.3673521876335144,0.0,0.6676998734474182,-6.0,27.665620999999998,19.0,11.0,0.0,-0.002855135127902031,0.0,0.0,0.00017453292519943296,1500.0,0.005690485239028931,0.0,27.626611999999998,0.0,0.0,1500.0,0.0,0.0,1.6097291707992554,2.659707247114159,,,,,,,,,
10.900533,51.459416,0.0,-0.8083088994026184,0.0,0.043839357793331146,0.0,-0.00837735179811716,0.0,0.0,0.008552113334772215,0.11466813185602745,-2.7913137,0.0012217304763960308,-9.771985054016113,3.0,444.0,1500.0,-3.0,0.0,0.0,-0.2288857400417328,0.0,11.0,197.0,0.3896159529685974,0.0,0.6518869400024414,-5.95,27.766195,19.0,11.0,0.0,-0.005746195092797279,0.0,0.0,0.00017453292519943296,1500.0,0.007158008404076099,0.0,27.745677999999998,0.0,0.0,1500.0,0.0,0.0,1.6272205114364624,2.659707247114159,,,,,,,,,
10.999965,51.459416,0.0,-0.7310819625854492,0.0,-0.06010029464960098,0.0,-0.008921020664274693,0.0,0.0,0.008726646259971648,0.11449359893082803,-2.7913137,0.0012217304763960308,-9.858196258544922,3.0,444.0,1500.0,-3.0,0.0,0.0,-0.2288857400417328,0.0,11.0,197.0,0.3896159529685974,0.0,0.6356556415557861,-5.95,27.865627,19.0,11.0,0.0,-0.012027101591229439,0.0,0.0,0.00017453292519943296,1500.0,0.008045020513236523,0.0,27.826058999999997,0.0,0.0,1500.0,0.0,0.0,1.634321928024292,2.659707247114159,,,,,,,,,
11.100379999999998,51.4594162,0.0,-0.7465273141860962,0.0,0.017405539751052856,0.0,-0.00744048785418272,0.0,0.0,0.008726646259971648,0.11431906600562858,-2.7913137,0.0012217304763960308,-9.7083740234375,3.0,444.0,1500.0,-3.0,0.0,0.0,-0.2288857400417328,0.0,11.0,197.0,0.4118797183036804,0.0,0.6172743439674377,-5.9,27.966041999999998,19.0,11.0,0.0,-0.02125648781657219,0.0,0.0,0.00017453292519943296,1500.0,0.0035077098291367292,0.0,27.945646999999997,0.0,0.0,1500.0,0.0,0.0,1.5762710571289062,2.659532714188959,,,,,,,,,
11.199960999999998,51.4594162,0.0,-0.921575129032135,0.0,0.1464691013097763,0.0,-0.002705617807805538,0.0,0.0,0.008726646259971648,0.11431906600562858,-2.7913137,0.0012217304763960308,-9.621582984924316,3.0,444.0,1500.0,-3.0,0.0,0.0,-0.2288857400417328,0.0,11.0,197.0,0.4118797183036804,0.0,0.5986863374710083,-5.9,28.065623,19.0,11.0,0.0,-0.027109649032354355,0.0,0.0,0.00017453292519943296,1500.0,0.00889354944229126,0.0,28.026595,0.0,0.0,1500.0,0.0,0.0,1.756725788116455,2.659532714188959,,,,,,,,,
11.300412999999999,51.459416399999995,0.0,-0.7928634881973267,0.0,-0.12383656948804855,0.0,-0.011371053755283356,0.0,0.0,0.009075712110370514,0.11431906600562858,-2.7913139,0.0012217304763960308,-9.744701385498047,3.0,444.0,1500.0,-3.0,0.0,0.0,-0.24275758862495422,0.0,11.0,197.0,0.4341434836387634,0.0,0.5773436427116394,-5.84,28.166075,19.0,11.0,0.0,-0.03275011107325554,0.0,0.0,0.00017453292519943296,1500.0,0.002497834386304021,0.0,28.145692,0.0,0.0,1500.0,0.0,0.0,1.8218144178390503,2.659532714188959,,,,,,,,,
11.399860999999998,51.459416399999995,0.0,-0.7774181365966797,0.0,-0.18851585686206818,0.0,-0.008118430152535439,0.0,0.0,0.009773843811168246,0.11431906600562858,-2.7913139,0.0012217304763960308,-9.755563735961914,3.0,444.0,1500.0,-3.0,0.0,0.0,-0.24275758862495422,0.0,11.0,197.0,0.4341434836387634,0.0,0.5564857125282288,-5.84,28.265522999999998,19.0,11.0,0.0,-0.03751300647854805,0.0,0.0,0.00017453292519943296,1500.0,0.015945453196763992,0.0,28.226018999999997,0.0,0.0,1500.0,0.0,0.0,1.3303624391555786,2.65935818126376,,,,,,,,,
11.500425999999997,51.4594167,0.0,-0.8083088994026184,0.0,0.24366837739944458,0.0,-0.015065088868141174,0.0,0.0,0.0054105206811824215,0.11397000015522972,-2.7913140999999997,0.0012217304763960308,-10.033111572265625,3.0,444.0,1500.0,-3.0,0.0,0.0,-0.25662946701049805,0.0,11.0,197.0,0.4675391614437103,0.0,0.5321853160858154,-5.8,28.366087999999998,19.0,11.0,0.0,-0.041953086853027344,0.0,0.0,0.00017453292519943296,1500.0,-0.005443200469017029,0.0,28.345837999999997,0.0,0.0,1500.0,0.0,0.0,1.4969998598098755,2.6598817800393584,,,,,,,,,
11.599992999999998,51.4594167,0.0,-0.756824254989624,0.0,-0.40094995498657227,0.0,-0.019600030034780502,0.0,0.0,0.013439035240356337,0.11397000015522972,-2.7913140999999997,0.0012217304763960308,-9.64331340789795,3.0,444.0,1500.0,-3.0,0.0,0.0,-0.25662946701049805,0.0,11.0,197.0,0.4675391614437103,0.0,0.5099340081214905,-5.8,28.465654999999998,19.0,11.0,0.0,-0.0496056005358696,0.0,0.0,0.00017453292519943296,1500.0,-0.0018071604426950216,0.0,28.42604,0.0,0.0,1500.0,0.0,0.0,1.458442211151123,2.6591836483385607,,,,,,,,,
11.700418999999997,51.4594169,0.0,-0.7413788437843323,0.0,0.5696958899497986,0.0,-0.004396415781229734,0.0,0.0,0.007853981633974483,0.1137954672300303,-2.7913140999999997,0.0012217304763960308,-9.994241714477539,3.0,444.0,1500.0,-3.0,0.0,0.0,-0.25662946701049805,0.0,11.0,197.0,0.48980292677879333,0.0,0.4837893545627594,-5.73,28.566080999999997,19.0,11.0,0.0,-0.053878095000982285,0.0,0.0,0.00017453292519943296,1500.0,0.015087380073964596,0.0,28.546201,0.0,0.0,1500.0,0.0,0.0,1.6555744409561157,2.659707247114159,,,,,,,,,
11.80002,51.4594169,0.0,-0.8752389550209045,0.0,-0.410494863986969,0.0,-0.010817675851285458,0.0,0.0,0.010821041362364843,0.11397000015522972,-2.7913140999999997,0.0012217304763960308,-9.582101821899414,3.0,444.0,1500.0,-3.0,0.0,0.0,-0.25662946701049805,0.0,11.0,197.0,0.48980292677879333,0.0,0.4592668414115906,-5.73,28.665682,19.0,11.0,0.0,-0.06606346368789673,0.0,0.0,0.00017453292519943296,1500.0,-0.005996682681143284,0.0,28.62669,0.0,0.0,1500.0,0.0,0.0,1.7369109392166138,2.6591836483385607,,,,,,,,,
11.900426999999997,51.459417099999996,0.0,-0.7671211957931519,0.0,0.09300396591424942,0.0,-0.01295184064656496,0.0,0.0,0.010471975511965976,0.1137954672300303,-2.7913140999999997,0.0012217304763960308,-9.736148834228516,3.0,444.0,1500.0,-3.0,0.0,0.0,-0.25662946701049805,0.0,11.0,197.0,0.512066662311554,0.0,0.430266797542572,-5.67,28.766088999999997,19.0,11.0,0.0,-0.07224873453378677,0.0,0.0,0.00017453292519943296,1500.0,-0.0008193629328161478,0.0,28.745672,0.0,0.0,1500.0,0.0,0.0,1.6504831314086914,2.6591836483385607,,,,,,,,,
11.999865999999997,51.459417099999996,0.0,-0.7928634881973267,0.0,0.34945306181907654,0.0,-0.018553048372268677,0.0,0.0,0.012915436464758038,0.1137954672300303,-2.7913140999999997,0.0012217304763960308,-9.80164909362793,3.0,444.0,1500.0,-3.0,0.0,0.0,-0.25662946701049805,0.0,11.0,197.0,0.512066662311554,0.0,0.4038058817386627,-5.67,28.865527999999998,19.0,11.0,0.0,-0.07889024168252945,0.0,0.0,0.00017453292519943296,1500.0,0.014139985665678978,0.0,28.82601,0.0,0.0,1500.0,0.0,0.0,1.2223701477050781,2.659009115413361,,,,,,,,,
12.100416999999997,51.459417599999995,0.0,-0.7465273141860962,0.0,-0.32031989097595215,0.0,-0.013128967955708504,0.0,0.0,0.015707963267948967,0.11362093430483085,-2.791314,0.0012217304763960308,-9.692440032958984,3.0,444.0,1500.0,-3.0,0.0,0.0,-0.24969352781772614,0.0,11.0,197.0,0.5677261352539062,0.0,0.372079074382782,-5.55,28.966078999999997,19.0,11.0,0.0,-0.08873840421438217,0.0,0.0,0.00017453292519943296,1500.0,-0.0032354891300201416,0.0,28.945735,0.0,0.0,1500.0,0.0,0.0,1.6095776557922363,2.6586600495629624,,,,,,,,,
12.199977999999998,51.459417599999995,0.0,-0.8906843066215515,0.0,0.10049127042293549,0.0,-0.011362745426595211,0.0,0.0,0.015009831567151233,0.11327186845443199,-2.791314,0.0012217304763960308,-9.870250701904297,3.0,444.0,1500.0,-3.0,0.0,0.0,-0.24969352781772614,0.0,11.0,197.0,0.5677261352539062,0.0,0.3416309952735901,-5.55,29.06564,19.0,11.0,0.0,-0.09576740115880966,0.0,0.0,0.00017453292519943296,1500.0,0.010534207336604595,0.0,29.026488999999998,0.0,0.0,1500.0,0.0,0.0,1.4504673480987549,2.658834582488162,,,,,,,,,
12.300412999999999,51.4594178,0.0,-0.6641519069671631,0.0,-0.06969466805458069,0.0,-0.00907080341130495,0.0,0.0,0.014835298641951801,0.11327186845443199,-2.7913137999999997,0.0012217304763960308,-9.659669876098633,3.0,444.0,1500.0,-3.0,0.0,0.0,-0.2358216643333435,0.0,11.0,197.0,0.5899899005889893,0.0,0.3046185076236725,-5.53,29.166075,19.0,11.0,0.0,-0.10934420675039291,0.0,0.0,0.00017453292519943296,1500.0,0.004483779892325401,0.0,29.145661999999998,0.0,0.0,1500.0,0.0,0.0,1.6940882205963135,2.658834582488162,,,,,,,,,
12.399964999999998,51.4594178,0.0,-0.7671211957931519,0.0,-0.15787753462791443,0.0,-0.006640935782343149,0.0,0.0,0.014660765716752368,0.11344640137963143,-2.7913137999999997,0.0012217304763960308,-9.479585647583008,3.0,444.0,1500.0,-3.0,0.0,0.0,-0.2358216643333435,0.0,11.0,197.0,0.5899899005889893,0.0,0.2729363441467285,-5.53,29.265627,19.0,11.0,0.0,-0.12216447293758392,0.0,0.0,0.00017453292519943296,1500.0,0.0032207609619945288,0.0,29.226015999999998,0.0,0.0,1500.0,0.0,0.0,1.7666025161743164,2.658834582488162,,,,,,,,,
12.500411,51.459418,0.0,-0.756824254989624,0.0,-0.1222444623708725,0.0,-0.011686345562338829,0.0,0.0,0.011519173063162575,0.11327186845443199,-2.7913139,0.0012217304763960308,-9.603544235229492,3.0,444.0,1500.0,-3.0,0.0,0.0,-0.24275758862495422,0.0,11.0,197.0,0.6122536659240723,0.0,0.23421958088874817,-5.47,29.366073,19.0,11.0,0.0,-0.13055837154388428,0.0,0.0,0.00017453292519943296,1500.0,0.014872732572257519,0.0,29.345847,0.0,0.0,1500.0,0.0,0.0,1.606271743774414,2.659009115413361,,,,,,,,,
12.599946999999997,51.459418,0.0,-0.7413788437843323,0.0,0.035891447216272354,0.0,-0.01109569612890482,0.0,0.0,0.009599310885968814,0.11327186845443199,-2.7913139,0.0012217304763960308,-9.701539993286133,3.0,444.0,1500.0,-3.0,0.0,0.0,-0.24275758862495422,0.0,11.0,197.0,0.6122536659240723,0.0,0.201806902885437,-5.47,29.465608999999997,19.0,11.0,0.0,-0.1335783302783966,0.0,0.0,0.00017453292519943296,1500.0,-0.0020059035159647465,0.0,29.425998999999997,0.0,0.0,1500.0,0.0,0.0,1.6209537982940674,2.6591836483385607,,,,,,,,,
12.700534999999999,51.459418199999995,0.0,-0.844348132610321,0.0,-0.14719420671463013,0.0,-0.0033202574122697115,0.0,0.0,0.013439035240356337,0.11327186845443199,-2.7913137999999997,0.0012217304763960308,-9.73730754852295,3.0,444.0,1500.0,-3.0,0.0,0.0,-0.2358216643333435,0.0,11.0,197.0,0.6345174312591553,0.0,0.16215841472148895,-5.41,29.566197,19.0,11.0,0.0,-0.14337295293807983,0.0,0.0,0.00017453292519943296,1500.0,0.004400771576911211,0.0,29.546143999999998,0.0,0.0,1500.0,0.0,0.0,1.6695928573608398,2.6586600495629624,,,,,,,,,
12.800009999999997,51.459418199999995,0.0,-0.7207850217819214,0.0,0.14930696785449982,0.0,-0.007611672393977642,0.0,0.0,0.011344640137963142,0.11344640137963143,-2.7913137999999997,0.0012217304763960308,-9.554119110107422,3.0,444.0,1500.0,-3.0,0.0,0.0,-0.2358216643333435,0.0,11.0,197.0,0.6345174312591553,0.0,0.1293599158525467,-5.41,29.665671999999997,19.0,11.0,0.0,-0.15072138607501984,0.0,0.0,0.00017453292519943296,1500.0,0.007435694802552462,0.0,29.626603,0.0,0.0,1500.0,0.0,0.0,1.6433908939361572,2.6586600495629624,,,,,,,,,
12.900481999999997,51.4594185,0.0,-0.7516757845878601,0.0,-0.07578832656145096,0.0,-0.004044532775878906,0.0,0.0,0.014311699866353503,0.1137954672300303,-2.791314,0.0012217304763960308,-9.241138458251953,3.0,444.0,1500.0,-3.0,0.0,0.0,-0.24969352781772614,0.0,11.0,197.0,0.6679130792617798,0.0,0.08868113905191422,-5.33,29.766143999999997,18.0,11.0,0.0,-0.16007718443870544,0.0,0.0,0.00017453292519943296,1500.0,-0.00033217715099453926,0.0,29.745652999999997,0.0,0.0,1500.0,0.0,0.0,1.976940393447876,2.6583109837125636,,,,,,,,,
12.999972999999997,51.4594185,0.0,-0.9782082438468933,0.0,-0.02165341190993786,0.0,-0.009797181002795696,0.0,0.0,0.013264502315156905,0.11362093430483085,-2.791314,0.0012217304763960308,-9.68817138671875,3.0,444.0,1500.0,-3.0,0.0,0.0,-0.24969352781772614,0.0,11.0,197.0,0.6679130792617798,0.0,0.05476527661085129,-5.33,29.865634999999997,18.0,11.0,0.0,-0.1692606806755066,0.0,0.0,0.00017453292519943296,1500.0,0.007162601221352816,0.0,29.826037999999997,0.0,0.0,1500.0,0.0,0.0,1.7287931442260742,2.6583109837125636,,,,,,,,,
13.100408999999999,51.459418899999996,0.0,-0.8906843066215515,0.0,-0.19263096153736115,0.0,-0.01284534577280283,0.0,0.0,0.012566370614359171,0.11362093430483085,-2.7913142,0.0012217304763960308,-9.65517807006836,3.0,444.0,1500.0,-3.0,0.0,0.0,-0.26356539130210876,0.0,11.0,197.0,0.7124406099319458,0.0,0.011861258186399937,-5.19,29.966071,19.0,11.0,0.0,-0.1761838048696518,0.0,0.0,0.00017453292519943296,1500.0,0.0014503602869808674,0.0,29.945819999999998,0.0,0.0,1500.0,0.0,0.0,1.8123599290847778,2.6584855166377626,,,,,,,,,
13.199836999999999,51.459418899999996,0.0,-0.8391996622085571,0.0,-0.2227683961391449,0.0,-0.014650224708020687,0.0,0.0,0.013613568165555772,0.11362093430483085,-2.7913142,0.0012217304763960308,-9.852924346923828,3.0,444.0,1500.0,-3.0,0.0,0.0,-0.26356539130210876,0.0,11.0,197.0,0.7124406099319458,0.0,-0.02584298513829708,-5.19,30.065499,19.0,11.0,0.0,-0.1850603222846985,0.0,0.0,0.00017453292519943296,1500.0,0.001538074342533946,0.0,30.026377999999998,0.0,0.0,1500.0,0.0,0.0,1.4792906045913696,2.6583109837125636,,,,,,,,,
13.300331999999997,51.459419,0.0,-0.7413788437843323,0.0,0.3138653635978699,0.0,-0.013068276457488537,0.0,0.0,0.012042771838760876,0.11362093430483085,-2.791314,0.0012217304763960308,-9.970293045043945,3.0,444.0,1500.0,-3.0,0.0,0.0,-0.24969352781772614,0.0,11.0,197.0,0.7235724925994873,0.0,-0.07291121035814285,-5.2,30.165993999999998,18.0,11.0,0.0,-0.1933511644601822,0.0,0.0,0.00017453292519943296,1500.0,0.006953544914722443,0.0,30.145660999999997,0.0,0.0,1500.0,0.0,0.0,1.320615530014038,2.6583109837125636,,,,,,,,,
13.399863999999997,51.459419,0.0,-0.7310819625854492,0.0,-0.10136473178863525,0.0,-0.010399451479315758,0.0,0.0,0.013439035240356337,0.1137954672300303,-2.791314,0.0012217304763960308,-9.78778076171875,3.0,444.0,1500.0,-3.0,0.0,0.0,-0.24969352781772614,0.0,11.0,197.0,0.7235724925994873,0.0,-0.10971484333276749,-5.2,30.265525999999998,18.0,11.0,0.0,-0.20073741674423218,0.0,0.0,0.00017453292519943296,1500.0,0.010943683795630932,0.0,30.225945999999997,0.0,0.0,1500.0,0.0,0.0,1.7002378702163696,2.658136450787364,,,,,,,,,
13.500407999999997,51.4594193,0.0,-0.8391996622085571,0.0,0.33904600143432617,0.0,-0.016059838235378265,0.0,0.0,0.007853981633974483,0.11397000015522972,-2.7913142,0.0012217304763960308,-9.393012046813965,3.0,444.0,1500.0,-3.0,0.0,0.0,-0.26356539130210876,0.0,11.0,197.0,0.7569681406021118,0.0,-0.15722374618053436,-5.1000000000000005,30.366069999999997,18.0,11.0,0.0,-0.21910838782787323,0.0,0.0,0.00017453292519943296,1500.0,-0.00877922773361206,0.0,30.345504,0.0,0.0,1500.0,0.0,0.0,1.6812772750854492,2.6586600495629624,,,,,,,,,
13.599868999999998,51.4594193,0.0,-0.756824254989624,0.0,-0.3188350796699524,0.0,-0.010522197932004929,0.0,0.0,0.012566370614359171,0.11414453308042916,-2.7913142,0.0012217304763960308,-9.567317962646484,3.0,444.0,1500.0,-3.0,0.0,0.0,-0.26356539130210876,0.0,11.0,197.0,0.7569681406021118,0.0,-0.19512762129306793,-5.1000000000000005,30.465531,18.0,11.0,0.0,-0.22331547737121582,0.0,0.0,0.00017453292519943296,1500.0,0.0035990511532872915,0.0,30.425994,0.0,0.0,1500.0,0.0,0.0,1.7617038488388062,2.658136450787364,,,,,,,,,
13.700409999999998,51.4594197,0.0,-0.7825666069984436,0.0,0.28050655126571655,0.0,-0.01542996522039175,0.0,0.0,0.007853981633974483,0.11431906600562858,-2.7913145,0.0012217304763960308,-9.573512077331543,3.0,444.0,1500.0,-3.0,0.0,0.0,-0.2843731939792633,0.0,11.0,197.0,0.8014956712722778,0.0,-0.24335673451423645,-5.04,30.566072,18.0,11.0,0.0,-0.2314402461051941,0.0,0.0,0.00017453292519943296,1500.0,-0.005107242614030838,0.0,30.546136999999998,0.0,0.0,1500.0,0.0,0.0,1.567419409751892,2.6584855166377626,,,,,,,,,
13.799950999999997,51.4594197,0.0,-0.8649420142173767,0.0,-0.10809402912855148,0.0,-0.011860131286084652,0.0,0.0,0.010995574287564275,0.11449359893082803,-2.7913145,0.0012217304763960308,-9.682734489440918,3.0,444.0,1500.0,-3.0,0.0,0.0,-0.2843731939792633,0.0,11.0,197.0,0.8014956712722778,0.0,-0.28131362795829773,-5.04,30.665612999999997,18.0,11.0,0.0,-0.23593983054161072,0.0,0.0,0.00017453292519943296,1500.0,0.005198193714022636,0.0,30.626486999999997,0.0,0.0,1500.0,0.0,0.0,1.780317783355713,2.658136450787364,,,,,,,,,
13.900375999999998,51.459420099999996,0.0,-0.7413788437843323,0.0,0.08007853478193283,0.0,-0.021333474665880203,0.0,0.0,0.009075712110370514,0.11431906600562858,-2.7913147,0.0012217304763960308,-9.680706977844238,3.0,444.0,1500.0,-3.0,0.0,0.0,-0.29824504256248474,0.0,11.0,197.0,0.8460232019424438,0.0,-0.3298741281032562,-4.91,30.766037999999998,18.0,11.0,0.0,-0.2455068826675415,0.0,0.0,0.00017453292519943296,1500.0,-0.008713233284652233,0.0,30.745863,0.0,0.0,1500.0,0.0,0.0,1.606845736503601,2.6583109837125636,,,,,,,,,
13.999937,51.459420099999996,0.0,-0.8391996622085571,0.0,0.09999927878379822,0.0,-0.01331261545419693,0.0,0.0,0.012217304763960308,0.11449359893082803,-2.7913147,0.0012217304763960308,-9.545975685119629,3.0,444.0,1500.0,-3.0,0.0,0.0,-0.29824504256248474,0.0,11.0,197.0,0.8460232019424438,0.0,-0.37005335092544556,-4.91,30.865599,18.0,11.0,0.0,-0.2546853721141815,0.0,0.0,0.00017453292519943296,1500.0,0.015072068199515343,0.0,30.825989,0.0,0.0,1500.0,0.0,0.0,1.443314790725708,2.6579619178621643,,,,,,,,,
14.100333,51.4594205,0.0,-0.7980119585990906,0.0,-0.02521180734038353,0.0,-0.020899314433336258,0.0,0.0,0.009075712110370514,0.11414453308042916,-2.7913148999999997,0.0012217304763960308,-9.724352836608887,3.0,444.0,1500.0,-3.0,0.0,0.0,-0.3121168911457062,0.0,11.0,197.0,0.8905507326126099,0.0,-0.4217039942741394,-4.8100000000000005,30.965995,18.0,11.0,0.0,-0.26167032122612,0.0,0.0,0.00017453292519943296,1500.0,-0.005854169838130474,0.0,30.945614,0.0,0.0,1500.0,0.0,0.0,1.7094566822052002,2.658136450787364,,,,,,,,,
14.199872,51.4594205,0.0,-0.8906843066215515,0.0,0.1982283592224121,0.0,-0.011865150183439255,0.0,0.0,0.009948376736367679,0.11414453308042916,-2.7913148999999997,0.0012217304763960308,-9.700122833251953,3.0,444.0,1500.0,-3.0,0.0,0.0,-0.3121168911457062,0.0,11.0,197.0,0.8905507326126099,0.0,-0.46389520168304443,-4.8100000000000005,31.065534,18.0,11.0,0.0,-0.27000319957733154,0.0,0.0,0.00017453292519943296,1500.0,0.014692193828523159,0.0,31.026418,0.0,0.0,1500.0,0.0,0.0,1.60398530960083,2.658136450787364,,,,,,,,,
14.300379999999997,51.4594208,0.0,-0.9833567142486572,0.0,-0.1239951103925705,0.0,-0.015490335412323475,0.0,0.0,0.010297442586766544,0.11414453308042916,-2.7913151999999997,0.0012217304763960308,-9.81010627746582,3.0,444.0,1500.0,-3.0,0.0,0.0,-0.3329247236251831,0.0,11.0,197.0,0.9239464402198792,0.0,-0.5184310078620911,-4.71,31.166041999999997,18.0,11.0,0.0,-0.276221364736557,0.0,0.0,0.00017453292519943296,1500.0,0.0016994926845654845,0.0,31.145633,0.0,0.0,1500.0,0.0,0.0,1.5551698207855225,2.6579619178621643,,,,,,,,,
14.399863999999997,51.4594208,0.0,-0.8803874254226685,0.0,0.3398468494415283,0.0,-0.01440304797142744,0.0,0.0,0.008377580409572781,0.11414453308042916,-2.7913151999999997,0.0012217304763960308,-9.877480506896973,3.0,444.0,1500.0,-3.0,0.0,0.0,-0.3329247236251831,0.0,11.0,197.0,0.9239464402198792,0.0,-0.5628923177719116,-4.71,31.265525999999998,18.0,11.0,0.0,-0.2865624725818634,0.0,0.0,0.00017453292519943296,1500.0,0.010974906384944916,0.0,31.225944,0.0,0.0,1500.0,0.0,0.0,1.5389621257781982,2.658136450787364,,,,,,,,,
14.500363999999998,51.459421199999994,0.0,-0.8391996622085571,0.0,-0.21803516149520874,0.0,-0.016174981370568275,0.0,0.0,0.009948376736367679,0.11414453308042916,-2.7913154,0.0012217304763960308,-9.796076774597168,3.0,444.0,1500.0,-3.0,0.0,0.0,-0.34679657220840454,0.0,11.0,197.0,0.9684739708900452,0.0,-0.6202231049537659,-4.61,31.366025999999998,18.0,11.0,0.0,-0.29638832807540894,0.0,0.0,0.00017453292519943296,1500.0,0.005794660188257694,0.0,31.345612,0.0,0.0,1500.0,0.0,0.0,1.550196647644043,2.6579619178621643,,,,,,,,,
14.599867,51.459421199999994,0.0,-0.8803874254226685,0.0,-0.23305460810661316,0.0,-0.021099478006362915,0.0,0.0,0.009075712110370514,0.11431906600562858,-2.7913154,0.0012217304763960308,-9.730263710021973,3.0,444.0,1500.0,-3.0,0.0,0.0,-0.34679657220840454,0.0,11.0,197.0,0.9684739708900452,0.0,-0.6660478115081787,-4.61,31.465529,18.0,11.0,0.0,-0.3066336214542389,0.0,0.0,0.00017453292519943296,1500.0,-0.005377659108489752,0.0,31.425953999999997,0.0,0.0,1500.0,0.0,0.0,1.6161437034606934,2.658136450787364,,,,,,,,,
14.700357999999998,51.4594215,0.0,-0.921575129032135,0.0,0.676857590675354,0.0,-0.007166493218392134,0.0,0.0,0.007155849933176752,0.11431906600562858,-2.7913156,0.0012217304763960308,-9.690793991088867,3.0,444.0,1500.0,-3.0,0.0,0.0,-0.36066845059394836,0.0,11.0,197.0,1.001869559288025,0.0,-0.7258211970329285,-4.5200000000000005,31.566019999999998,18.0,11.0,0.0,-0.3172692656517029,0.0,0.0,0.00017453292519943296,1500.0,0.02365235611796379,0.0,31.546288999999998,0.0,0.0,1500.0,0.0,0.0,1.5283628702163696,2.658136450787364,,,,,,,,,
14.799959999999999,51.4594215,0.0,-0.9576143622398376,0.0,-0.5850988626480103,0.0,-0.026289958506822586,0.0,0.0,0.008726646259971648,0.11449359893082803,-2.7913156,0.0012217304763960308,-9.793242454528809,3.0,444.0,1500.0,-3.0,0.0,0.0,-0.36066845059394836,0.0,11.0,197.0,1.001869559288025,0.0,-0.7727711796760559,-4.5200000000000005,31.665622,18.0,11.0,0.0,-0.3248535096645355,0.0,0.0,0.00017453292519943296,1500.0,-0.014296826906502247,0.0,31.626728,0.0,0.0,1500.0,0.0,0.0,1.6051541566848755,2.6579619178621643,,,,,,,,,
14.900362999999999,51.4594218,0.0,-0.9679113030433655,0.0,0.5092574954032898,0.0,-0.011481238529086113,0.0,0.0,0.007155849933176752,0.11449359893082803,-2.7913155,0.0012217304763960308,-9.789470672607422,3.0,444.0,1500.0,-3.0,0.0,0.0,-0.35373252630233765,0.0,11.0,197.0,1.0352652072906494,0.0,-0.834058940410614,-4.42,31.766025,18.0,11.0,0.0,-0.33351629972457886,0.0,0.0,0.00017453292519943296,1500.0,0.01886245794594288,0.0,31.745645999999997,0.0,0.0,1500.0,0.0,0.0,1.5607335567474365,2.658136450787364,,,,,,,,,
14.999828999999998,51.4594218,0.0,-0.7619727253913879,0.0,-0.49735715985298157,0.0,-0.024675220251083374,0.0,0.0,0.009075712110370514,0.11449359893082803,-2.7913155,0.0012217304763960308,-9.704612731933594,3.0,444.0,1500.0,-3.0,0.0,0.0,-0.35373252630233765,0.0,11.0,197.0,1.0352652072906494,0.0,-0.881862461566925,-4.42,31.865491,18.0,11.0,0.0,-0.3428429067134857,0.0,0.0,0.00017453292519943296,1500.0,-0.00987854041159153,0.0,31.825948999999998,0.0,0.0,1500.0,0.0,0.0,1.653677225112915,2.6579619178621643,,,,,,,,,
15.100389,51.4594222,0.0,-0.9936535954475403,0.0,0.4618527889251709,0.0,-0.013021448627114296,0.0,0.0,0.007330382858376184,0.11449359893082803,-2.7913154,0.0012217304763960308,-9.741410255432129,3.0,444.0,1500.0,-3.0,0.0,0.0,-0.34679657220840454,0.0,11.0,197.0,1.079792857170105,0.0,-0.9447039365768433,-4.29,31.966051,19.0,11.0,0.0,-0.3515627980232239,0.0,0.0,0.00017453292519943296,1500.0,0.016002114862203598,0.0,31.945632,0.0,0.0,1500.0,0.0,0.0,1.6167322397232056,2.6579619178621643,,,,,,,,,
15.199857000000002,51.4594222,0.0,-0.8546450734138489,0.0,-0.40712040662765503,0.0,-0.02362469956278801,0.0,0.0,0.009250245035569947,0.11449359893082803,-2.7913154,0.0012217304763960308,-9.668848037719727,3.0,444.0,1500.0,-3.0,0.0,0.0,-0.34679657220840454,0.0,11.0,197.0,1.079792857170105,0.0,-0.9944042563438416,-4.29,32.065519,19.0,11.0,0.0,-0.36132103204727173,0.0,0.0,0.00017453292519943296,1500.0,-0.006477054208517075,0.0,32.026469999999996,0.0,0.0,1500.0,0.0,0.0,1.6659828424453735,2.657787384936965,,,,,,,,,
15.300362999999997,51.459422499999995,0.0,-0.8031604290008545,0.0,0.39536598324775696,0.0,-0.01527475006878376,0.0,0.0,0.007504915783575617,0.11449359893082803,-2.7913153,0.0012217304763960308,-9.721303939819336,3.0,444.0,1500.0,-3.0,0.0,0.0,-0.3398606479167938,0.0,11.0,197.0,1.1131885051727295,0.0,-1.0602892637252808,-4.18,32.166025,19.0,11.0,0.0,-0.36959630250930786,0.0,0.0,0.00017453292519943296,1500.0,0.013417358510196209,0.0,32.145607,0.0,0.0,1500.0,0.0,0.0,1.6231708526611328,2.6579619178621643,,,,,,,,,
15.399865999999996,51.459422499999995,0.0,-1.0142474174499512,0.0,-0.34311628341674805,0.0,-0.022637492045760155,0.0,0.0,0.009599310885968814,0.11449359893082803,-2.7913153,0.0012217304763960308,-9.678884506225586,3.0,444.0,1500.0,-3.0,0.0,0.0,-0.3398606479167938,0.0,11.0,197.0,1.1131885051727295,0.0,-1.1114851236343384,-4.18,32.265527999999996,19.0,11.0,0.0,-0.3781720697879791,0.0,0.0,0.00017453292519943296,1500.0,-0.0020262575708329678,0.0,32.225952,0.0,0.0,1500.0,0.0,0.0,1.6609807014465332,2.657787384936965,,,,,,,,,
15.500374999999998,51.4594229,0.0,-0.8546450734138489,0.0,0.33594632148742676,0.0,-0.016838375478982925,0.0,0.0,0.007504915783575617,0.11449359893082803,-2.7913155,0.0012217304763960308,-9.716915130615234,3.0,444.0,1500.0,-3.0,0.0,0.0,-0.35373252630233765,0.0,11.0,197.0,1.1577160358428955,0.0,-1.1791789531707764,-4.05,32.366037,19.0,11.0,0.0,-0.3879067897796631,0.0,0.0,0.00017453292519943296,1500.0,0.0116046741604805,0.0,32.345621,0.0,0.0,1500.0,0.0,0.0,1.631104588508606,2.6579619178621643,,,,,,,,,
15.599837999999998,51.4594229,0.0,-0.9988020658493042,0.0,-0.29149407148361206,0.0,-0.021980492398142815,0.0,0.0,0.009599310885968814,0.11449359893082803,-2.7913155,0.0012217304763960308,-9.675931930541992,3.0,444.0,1500.0,-3.0,0.0,0.0,-0.35373252630233765,0.0,11.0,197.0,1.1577160358428955,0.0,-1.232319951057434,-4.05,32.4655,19.0,11.0,0.0,-0.3972291350364685,0.0,0.0,0.00017453292519943296,1500.0,0.000688839063514024,0.0,32.425903999999996,0.0,0.0,1500.0,0.0,0.0,1.6719099283218384,2.657612852011766,,,,,,,,,
15.700403999999999,51.459423199999996,0.0,-0.8597935438156128,0.0,0.2690712809562683,0.0,-0.01859884522855282,0.0,0.0,0.00767944870877505,0.11449359893082803,-2.7913153,0.0012217304763960308,-9.703339576721191,3.0,444.0,1500.0,-3.0,0.0,0.0,-0.3398606479167938,0.0,11.0,197.0,1.19111168384552,0.0,-1.3027241230010986,-3.91,32.566066,18.0,11.0,0.0,-0.40613481402397156,0.0,0.0,0.00017453292519943296,1500.0,0.010535197332501411,0.0,32.546203,0.0,0.0,1500.0,0.0,0.0,1.6336464881896973,2.657787384936965,,,,,,,,,
15.799952999999995,51.459423199999996,0.0,-1.009099006652832,0.0,-0.2597282826900482,0.0,-0.021933581680059433,0.0,0.0,0.009773843811168246,0.11449359893082803,-2.7913153,0.0012217304763960308,-9.679790496826172,3.0,444.0,1500.0,-3.0,0.0,0.0,-0.3398606479167938,0.0,11.0,197.0,1.19111168384552,0.0,-1.3581278324127197,-3.91,32.665614999999995,18.0,11.0,0.0,-0.4154394865036011,0.0,0.0,0.00017453292519943296,1500.0,0.003589146537706256,0.0,32.62652,0.0,0.0,1500.0,0.0,0.0,1.666965365409851,2.657438319086566,,,,,,,,,
15.900348000000001,51.4594235,0.0,-0.9782082438468933,0.0,0.22619971632957458,0.0,-0.020070672035217285,0.0,0.0,0.008028514559173916,0.11449359893082803,-2.7913153,0.0012217304763960308,-9.705021858215332,3.0,444.0,1500.0,-3.0,0.0,0.0,-0.3398606479167938,0.0,11.0,197.0,1.2245073318481445,0.0,-1.431620478630066,-3.79,32.76601,19.0,11.0,0.0,-0.4256384074687958,0.0,0.0,0.00017453292519943296,1500.0,0.010205131955444813,0.0,32.745601,0.0,0.0,1500.0,0.0,0.0,1.631148338317871,2.657612852011766,,,,,,,,,
15.999857999999996,51.4594235,0.0,-1.0296928882598877,0.0,-0.19072797894477844,0.0,-0.02194325253367424,0.0,0.0,0.009773843811168246,0.11449359893082803,-2.7913153,0.0012217304763960308,-9.678202629089355,3.0,444.0,1500.0,-3.0,0.0,0.0,-0.3398606479167938,0.0,11.0,197.0,1.2245073318481445,0.0,-1.4886863231658936,-3.79,32.86552,19.0,11.0,0.0,-0.43489229679107666,0.0,0.0,0.00017453292519943296,1500.0,0.005937743466347456,0.0,32.82596,0.0,0.0,1500.0,0.0,0.0,1.6528352499008179,2.657438319086566,,,,,,,,,
16.100387999999995,51.4594239,0.0,-1.009099006652832,0.0,0.16133692860603333,0.0,-0.021400315687060356,0.0,0.0,0.00820304748437335,0.11449359893082803,-2.7913154,0.0012217304763960308,-9.68077564239502,3.0,444.0,1500.0,-3.0,0.0,0.0,-0.34679657220840454,0.0,11.0,197.0,1.2690348625183105,0.0,-1.564589262008667,-3.7,32.966049999999996,18.0,11.0,0.0,-0.44487130641937256,0.0,0.0,0.00017453292519943296,1500.0,0.009774238802492619,0.0,32.945648999999996,0.0,0.0,1500.0,0.0,0.0,1.648483395576477,2.657612852011766,,,,,,,,,
16.199844,51.4594239,0.0,-0.8391996622085571,0.0,-0.14820238947868347,0.0,-0.02220642939209938,0.0,0.0,0.009773843811168246,0.11449359893082803,-2.7913154,0.0012217304763960308,-9.674787521362305,3.0,444.0,1500.0,-3.0,0.0,0.0,-0.34679657220840454,0.0,11.0,197.0,1.2690348625183105,0.0,-1.6223247051239014,-3.7,33.065506,18.0,11.0,0.0,-0.45380282402038574,0.0,0.0,0.00017453292519943296,1500.0,0.007841958664357662,0.0,33.026314,0.0,0.0,1500.0,0.0,0.0,1.646052360534668,2.6572637861613666,,,,,,,,,
16.300385999999996,51.4594241,0.0,-0.7928634881973267,0.0,0.12012442201375961,0.0,-0.02231065183877945,0.0,0.0,0.008377580409572781,0.11449359893082803,-2.7913153,0.0012217304763960308,-9.682550430297852,3.0,444.0,1500.0,-3.0,0.0,0.0,-0.3398606479167938,0.0,11.0,197.0,1.2912986278533936,0.0,-1.6991403102874756,-3.58,33.166047999999996,18.0,11.0,0.0,-0.4641258120536804,0.0,0.0,0.00017453292519943296,1500.0,0.008297075517475605,0.0,33.145645,0.0,0.0,1500.0,0.0,0.0,1.6357479095458984,2.657438319086566,,,,,,,,,
16.399848,51.4594241,0.0,-0.9061297178268433,0.0,-0.10617779195308685,0.0,-0.02218034490942955,0.0,0.0,0.009599310885968814,0.11449359893082803,-2.7913153,0.0012217304763960308,-9.687701225280762,3.0,444.0,1500.0,-3.0,0.0,0.0,-0.3398606479167938,0.0,11.0,197.0,1.2912986278533936,0.0,-1.756925344467163,-3.58,33.26551,18.0,11.0,0.0,-0.4722251892089844,0.0,0.0,0.00017453292519943296,1500.0,0.008384939283132553,0.0,33.225949,0.0,0.0,1500.0,0.0,0.0,1.654708743095398,2.6572637861613666,,,,,,,,,
16.500355999999996,51.4594242,0.0,-0.9782082438468933,0.0,0.08924968540668488,0.0,-0.023390747606754303,0.0,0.0,0.008552113334772215,0.11449359893082803,-2.7913151999999997,0.0012217304763960308,-9.70595645904541,3.0,444.0,1500.0,-3.0,0.0,0.0,-0.3329247236251831,0.0,11.0,197.0,1.302430510520935,0.0,-1.8348129987716675,-3.49,33.366018,18.0,11.0,0.0,-0.48222631216049194,0.0,0.0,0.00017453292519943296,1500.0,0.007328343577682972,0.0,33.345662,0.0,0.0,1500.0,0.0,0.0,1.6456077098846436,2.6572637861613666,,,,,,,,,
16.599872999999995,51.4594242,0.0,-0.8391996622085571,0.0,-0.02974756248295307,0.0,-0.022123908624053,0.0,0.0,0.00942477796076938,0.11449359893082803,-2.7913151999999997,0.0012217304763960308,-9.695358276367188,3.0,444.0,1500.0,-3.0,0.0,0.0,-0.3329247236251831,0.0,11.0,197.0,1.302430510520935,0.0,-1.8921129703521729,-3.49,33.465534999999996,18.0,11.0,0.0,-0.4901184141635895,0.0,0.0,0.00017453292519943296,1500.0,0.009905282407999039,0.0,33.425951,0.0,0.0,1500.0,0.0,0.0,1.6458311080932617,2.6572637861613666,,,,,,,,,
16.700368999999995,51.4594245,0.0,-0.8855358958244324,0.0,0.030644197016954422,0.0,-0.02418910153210163,0.0,0.0,0.00890117918517108,0.11449359893082803,-2.7913151999999997,0.0012217304763960308,-9.698478698730469,3.0,444.0,1500.0,-3.0,0.0,0.0,-0.3329247236251831,0.0,11.0,197.0,1.3358261585235596,0.0,-1.9700102806091309,-3.4,33.566030999999995,18.0,11.0,0.0,-0.49915120005607605,0.0,0.0,0.00017453292519943296,1500.0,0.007196368183940649,0.0,33.546313,0.0,0.0,1500.0,0.0,0.0,1.6485044956207275,2.6572637861613666,,,,,,,,,
16.799962999999998,51.4594245,0.0,-0.7928634881973267,0.0,-0.019031552597880363,0.0,-0.022723622620105743,0.0,0.0,0.009599310885968814,0.11449359893082803,-2.7913151999999997,0.0012217304763960308,-9.69174861907959,3.0,444.0,1500.0,-3.0,0.0,0.0,-0.3329247236251831,0.0,11.0,197.0,1.3358261585235596,0.0,-2.026317834854126,-3.4,33.665625,18.0,11.0,0.0,-0.5065052509307861,0.0,0.0,0.00017453292519943296,1500.0,0.01037511881440878,0.0,33.626473,0.0,0.0,1500.0,0.0,0.0,1.6440708637237549,2.6570892532361676,,,,,,,,,
16.900399,51.4594247,0.0,-0.9009812474250793,0.0,-0.007416699547320604,0.0,-0.024618571624159813,0.0,0.0,0.009075712110370514,0.11449359893082803,-2.791315,0.0012217304763960308,-9.691099166870117,3.0,444.0,1500.0,-3.0,0.0,0.0,-0.3190528154373169,0.0,11.0,197.0,1.3580899238586426,0.0,-2.1036839485168457,-3.33,33.766061,19.0,11.0,0.0,-0.5157668590545654,0.0,0.0,0.00017453292519943296,1500.0,0.007512524724006653,0.0,33.745515,0.0,0.0,1500.0,0.0,0.0,1.6422234773635864,2.6572637861613666,,,,,,,,,
16.999818999999995,51.4594247,0.0,-0.8855358958244324,0.0,0.014170343056321144,0.0,-0.023062948137521744,0.0,0.0,0.00942477796076938,0.11449359893082803,-2.791315,0.0012217304763960308,-9.693441390991211,3.0,444.0,1500.0,-3.0,0.0,0.0,-0.3190528154373169,0.0,11.0,197.0,1.3580899238586426,0.0,-2.1581835746765137,-3.33,33.865480999999996,19.0,11.0,0.0,-0.5221850275993347,0.0,0.0,0.00017453292519943296,1500.0,0.011185456067323685,0.0,33.825987,0.0,0.0,1500.0,0.0,0.0,1.6451929807662964,2.6570892532361676,,,,,,,,,
17.100341,51.4594248,0.0,-1.0657321214675903,0.0,-0.02824605256319046,0.0,-0.025482840836048126,0.0,0.0,0.009075712110370514,0.11449359893082803,-2.791315,0.0012217304763960308,-9.699398040771484,3.0,444.0,1500.0,-3.0,0.0,0.0,-0.3190528154373169,0.0,11.0,197.0,1.369221806526184,0.0,-2.234591245651245,-3.25,33.966003,19.0,11.0,0.0,-0.5299918055534363,0.0,0.0,0.00017453292519943296,1500.0,0.0076756225898861885,0.0,33.945639,0.0,0.0,1500.0,0.0,0.0,1.6554229259490967,2.6570892532361676,,,,,,,,,
17.199940999999995,51.4594248,0.0,-0.9679113030433655,0.0,0.020109977573156357,0.0,-0.024155085906386375,0.0,0.0,0.009250245035569947,0.11449359893082803,-2.791315,0.0012217304763960308,-9.703102111816406,3.0,444.0,1500.0,-3.0,0.0,0.0,-0.3190528154373169,0.0,11.0,197.0,1.369221806526184,0.0,-2.2872164249420166,-3.25,34.065602999999996,19.0,11.0,0.0,-0.5357823967933655,0.0,0.0,0.00017453292519943296,1500.0,0.011142449453473091,0.0,34.026458,0.0,0.0,1500.0,0.0,0.0,1.642032265663147,2.6570892532361676,,,,,,,,,
17.300387,51.459424899999995,0.0,-0.9833567142486572,0.0,-0.0269700326025486,0.0,-0.02582089602947235,0.0,0.0,0.009250245035569947,0.11449359893082803,-2.7913148999999997,0.0012217304763960308,-9.684541702270508,3.0,444.0,1500.0,-3.0,0.0,0.0,-0.3121168911457062,0.0,11.0,197.0,1.3803536891937256,0.0,-2.361487627029419,-3.17,34.166049,19.0,11.0,0.0,-0.5435968637466431,0.0,0.0,0.00017453292519943296,1500.0,0.008835251443088055,0.0,34.145654,0.0,0.0,1500.0,0.0,0.0,1.6498397588729858,2.6572637861613666,,,,,,,,,
17.399859999999997,51.459424899999995,0.0,-0.9421689510345459,0.0,0.028998762369155884,0.0,-0.02517789416015148,0.0,0.0,0.009250245035569947,0.11449359893082803,-2.7913148999999997,0.0012217304763960308,-9.694181442260742,3.0,444.0,1500.0,-3.0,0.0,0.0,-0.3121168911457062,0.0,11.0,197.0,1.3803536891937256,0.0,-2.4122602939605713,-3.17,34.265522,19.0,11.0,0.0,-0.5483327507972717,0.0,0.0,0.0,1500.0,0.011231639422476292,0.0,34.225924,0.0,0.0,1500.0,0.0,0.0,1.6383219957351685,2.6572637861613666,,,,,,,,,
17.500402,51.459424999999996,0.0,-0.8958327770233154,0.0,-0.015247879549860954,0.0,-0.025651196017861366,0.0,0.0,0.009250245035569947,0.11449359893082803,-2.791315,0.0012217304763960308,-9.703496932983398,3.0,444.0,1500.0,-3.0,0.0,0.0,-0.3190528154373169,0.0,11.0,197.0,1.391485571861267,0.0,-2.4849510192871094,-3.13,34.366064,19.0,11.0,0.0,-0.5553135871887207,0.0,0.0,0.0,1500.0,0.009382769465446472,0.0,34.345635,0.0,0.0,1500.0,0.0,0.0,1.6412763595581055,2.6570892532361676,,,,,,,,,
17.599855999999996,51.459424999999996,0.0,-0.9473174214363098,0.0,0.021934885531663895,0.0,-0.02493606135249138,0.0,0.0,0.009250245035569947,0.11449359893082803,-2.791315,0.0012217304763960308,-9.691049575805664,3.0,444.0,1500.0,-3.0,0.0,0.0,-0.3190528154373169,0.0,11.0,197.0,1.391485571861267,0.0,-2.5326972007751465,-3.13,34.465517999999996,19.0,11.0,0.0,-0.5595868229866028,0.0,0.0,0.0,1500.0,0.010505304671823978,0.0,34.425972,0.0,0.0,1500.0,0.0,0.0,1.645484209060669,2.6570892532361676,,,,,,,,,
17.700387,51.4594253,0.0,-0.8906843066215515,0.0,-0.03766060620546341,0.0,-0.02569330669939518,0.0,0.0,0.00942477796076938,0.11449359893082803,-2.7913151,0.0012217304763960308,-9.695189476013184,3.0,444.0,1500.0,-3.0,0.0,0.0,-0.32598876953125,0.0,11.0,197.0,1.4248812198638916,0.0,-2.6024575233459473,-3.1,34.566049,19.0,11.0,0.0,-0.5651258826255798,0.0,0.0,0.0,1500.0,0.008830566890537739,0.0,34.546059,0.0,0.0,1500.0,0.0,0.0,1.6493037939071655,2.6570892532361676,,,,,,,,,
17.799951,51.4594253,0.0,-1.024544358253479,0.0,0.01792529970407486,0.0,-0.025406653061509132,0.0,0.0,0.00942477796076938,0.11449359893082803,-2.7913151,0.0012217304763960308,-9.68856143951416,3.0,444.0,1500.0,-3.0,0.0,0.0,-0.32598876953125,0.0,11.0,197.0,1.4248812198638916,0.0,-2.6463921070098877,-3.1,34.665613,19.0,11.0,0.0,-0.568105161190033,0.0,0.0,0.0,1500.0,0.009825869463384151,0.0,34.626643,0.0,0.0,1500.0,0.0,0.0,1.638861894607544,2.6570892532361676,,,,,,,,,
17.900354,51.4594254,0.0,-0.8649420142173767,0.0,-0.0183870866894722,0.0,-0.02654169499874115,0.0,0.0,0.00942477796076938,0.11449359893082803,-2.791315,0.0012217304763960308,-9.691686630249023,3.0,444.0,1500.0,-3.0,0.0,0.0,-0.3190528154373169,0.0,11.0,197.0,1.436013102531433,0.0,-2.7122573852539062,-3.0300000000000002,34.766016,19.0,11.0,0.0,-0.5722073912620544,0.0,0.0,0.0,1500.0,0.008373009972274303,0.0,34.74563,0.0,0.0,1500.0,0.0,0.0,1.648756504058838,2.6569147203109678,,,,,,,,,
17.999851,51.4594254,0.0,-1.0708805322647095,0.0,0.020350364968180656,0.0,-0.026561416685581207,0.0,0.0,0.00942477796076938,0.11449359893082803,-2.791315,0.0012217304763960308,-9.687835693359375,3.0,444.0,1500.0,-3.0,0.0,0.0,-0.3190528154373169,0.0,11.0,197.0,1.436013102531433,0.0,-2.753981590270996,-3.0300000000000002,34.865513,19.0,11.0,0.0,-0.5745038986206055,0.0,0.0,0.0,1500.0,0.009144631214439869,0.0,34.825919999999996,0.0,0.0,1500.0,0.0,0.0,1.6422802209854126,2.6569147203109678,,,,,,,,,
18.100386,51.4594254,0.0,-0.8958327770233154,0.0,-0.009727303870022297,0.0,-0.02720574475824833,0.0,0.0,0.009599310885968814,0.11449359893082803,-2.7913148999999997,0.0012217304763960308,-9.683452606201172,3.0,444.0,1500.0,-3.0,0.0,0.0,-0.3121168911457062,0.0,11.0,197.0,1.436013102531433,0.0,-2.817107915878296,-2.98,34.966048,19.0,11.0,0.0,-0.578272819519043,0.0,0.0,0.0,1500.0,0.007968497462570667,0.0,34.945616,0.0,0.0,1500.0,0.0,0.0,1.6493606567382812,2.6569147203109678,,,,,,,,,
18.199835999999998,51.4594254,0.0,-0.9473174214363098,0.0,0.025995850563049316,0.0,-0.027685487642884254,0.0,0.0,0.00942477796076938,0.11449359893082803,-2.7913148999999997,0.0012217304763960308,-9.690902709960938,3.0,444.0,1500.0,-3.0,0.0,0.0,-0.3121168911457062,0.0,11.0,197.0,1.436013102531433,0.0,-2.8555052280426025,-2.98,35.065498,19.0,11.0,0.0,-0.5797446370124817,0.0,0.0,0.0,1500.0,0.00837022252380848,0.0,35.026438,0.0,0.0,1500.0,0.0,0.0,1.6509692668914795,2.6569147203109678,,,,,,,,,
18.300402999999996,51.4594254,0.0,-0.9370205402374268,0.0,-0.005622525233775377,0.0,-0.029040584340691566,0.0,0.0,0.00942477796076938,0.11449359893082803,-2.7913148,0.0012217304763960308,-9.702000617980957,3.0,444.0,1500.0,-3.0,0.0,0.0,-0.30518099665641785,0.0,11.0,197.0,1.436013102531433,0.0,-2.9158565998077393,-2.95,35.166064999999996,19.0,11.0,0.0,-0.5827228426933289,0.0,0.0,0.0,1500.0,0.007732120808213949,0.0,35.145666999999996,0.0,0.0,1500.0,0.0,0.0,1.6534267663955688,2.6569147203109678,,,,,,,,,
18.399888999999995,51.4594254,0.0,-0.9679113030433655,0.0,0.014250880107283592,0.0,-0.029271619394421577,0.0,0.0,0.00942477796076938,0.11449359893082803,-2.7913148,0.0012217304763960308,-9.695150375366211,3.0,444.0,1500.0,-3.0,0.0,0.0,-0.30518099665641785,0.0,11.0,197.0,1.436013102531433,0.0,-2.9509880542755127,-2.95,35.265550999999995,19.0,11.0,0.0,-0.5837115049362183,0.0,0.0,0.0,1500.0,0.0074845533818006516,0.0,35.225997,0.0,0.0,1500.0,0.0,0.0,1.6331955194473267,2.6569147203109678,,,,,,,,,
18.500414999999997,51.4594254,0.0,-1.0451382398605347,0.0,0.010034352540969849,0.0,-0.03071402944624424,0.0,0.0,0.00942477796076938,0.11449359893082803,-2.7913148999999997,0.0012217304763960308,-9.700727462768555,3.0,444.0,1500.0,-3.0,0.0,0.0,-0.3121168911457062,0.0,11.0,197.0,1.436013102531433,0.0,-3.00801157951355,-2.9,35.366077,19.0,11.0,0.0,-0.5859858989715576,0.0,0.0,0.0,1500.0,0.006297355983406305,0.0,35.345667,0.0,0.0,1500.0,0.0,0.0,1.6496915817260742,2.6569147203109678,,,,,,,,,
18.599846999999997,51.4594254,0.0,-0.9112781882286072,0.0,0.012572484090924263,0.0,-0.030954649671912193,0.0,0.0,0.00942477796076938,0.11449359893082803,-2.7913148999999997,0.0012217304763960308,-9.698873519897461,3.0,444.0,1500.0,-3.0,0.0,0.0,-0.3121168911457062,0.0,11.0,197.0,1.436013102531433,0.0,-3.040433406829834,-2.9,35.465509,19.0,11.0,0.0,-0.5857134461402893,0.0,0.0,0.0,1500.0,0.005907473154366016,0.0,35.425931999999996,0.0,0.0,1500.0,0.0,0.0,1.6448899507522583,2.6569147203109678,,,,,,,,,
18.70035,51.4594254,0.0,-0.8546450734138489,0.0,-0.0006721552927047014,0.0,-0.03171427547931671,0.0,0.0,0.00942477796076938,0.11449359893082803,-2.7913151999999997,0.0012217304763960308,-9.692742347717285,3.0,444.0,1500.0,-3.0,0.0,0.0,-0.3329247236251831,0.0,11.0,197.0,1.436013102531433,0.0,-3.0946099758148193,-2.89,35.566012,19.0,11.0,0.0,-0.5872901082038879,0.0,0.0,0.0,1500.0,0.003956743981689215,0.0,35.546293,0.0,0.0,1500.0,0.0,0.0,1.6369017362594604,2.6569147203109678,,,,,,,,,
18.799938999999995,51.4594254,0.0,-0.9730597734451294,0.0,0.004006748087704182,0.0,-0.03164837136864662,0.0,0.0,0.00942477796076938,0.11466813185602745,-2.7913151999999997,0.0012217304763960308,-9.695655822753906,3.0,444.0,1500.0,-3.0,0.0,0.0,-0.3329247236251831,0.0,11.0,197.0,1.436013102531433,0.0,-3.1233773231506348,-2.89,35.665600999999995,19.0,11.0,0.0,-0.5861366391181946,0.0,0.0,0.0,1500.0,0.0036074379459023476,0.0,35.626495,0.0,0.0,1500.0,0.0,0.0,1.6484487056732178,2.6569147203109678,,,,,,,,,
18.900360999999997,51.4594254,0.0,-1.024544358253479,0.0,0.004046991467475891,0.0,-0.03218420222401619,0.0,0.0,0.00942477796076938,0.11466813185602745,-2.7913151999999997,0.0012217304763960308,-9.671579360961914,3.0,444.0,1500.0,-3.0,0.0,0.0,-0.3329247236251831,0.0,11.0,197.0,1.436013102531433,0.0,-3.1742632389068604,-2.84,35.766023,19.0,11.0,0.0,-0.5864859223365784,0.0,0.0,0.0,1500.0,0.004223100375384092,0.0,35.745661,0.0,0.0,1500.0,0.0,0.0,1.6599705219268799,2.6569147203109678,,,,,,,,,
18.999862,51.4594254,0.0,-0.9679113030433655,0.0,0.07087407261133194,0.0,-0.03088778257369995,0.0,0.0,0.00767944870877505,0.11449359893082803,-2.7913151999999997,0.0012217304763960308,-9.53917121887207,3.0,444.0,1500.0,-3.0,0.0,0.0,-0.3329247236251831,0.0,11.0,197.0,1.436013102531433,0.0,-3.200331687927246,-2.84,35.865524,19.0,11.0,0.0,-0.5863767862319946,0.0,0.0,0.0,1500.0,0.002192725660279393,0.0,35.825938,0.0,0.0,1500.0,0.0,0.0,1.7568485736846924,2.6570892532361676,,,,,,,,,
19.100401999999995,51.4594253,0.0,-0.9833567142486572,0.0,-0.5677057504653931,0.0,-0.03518478199839592,0.0,0.0,0.00890117918517108,0.11466813185602745,-2.791315,0.0012217304763960308,-9.541374206542969,3.0,444.0,1500.0,-3.0,0.0,0.0,-0.3190528154373169,0.0,11.0,197.0,1.4248812198638916,0.0,-3.2478995323181152,-2.87,35.966063999999996,19.0,11.0,0.0,-0.5850949883460999,0.0,0.0,0.0,1500.0,-0.001302088494412601,0.0,35.945626,0.0,0.0,1500.0,0.0,0.0,1.8339765071868896,2.6570892532361676,,,,,,,,,
19.199824,51.4594253,0.0,-0.9885051250457764,0.0,-0.18979626893997192,0.0,-0.03926224261522293,0.0,0.0,0.007330382858376184,0.11449359893082803,-2.791315,0.0012217304763960308,-9.806111335754395,3.0,444.0,1500.0,-3.0,0.0,0.0,-0.3190528154373169,0.0,11.0,197.0,1.4248812198638916,0.0,-3.269386053085327,-2.87,36.065486,19.0,11.0,0.0,-0.5808638334274292,0.0,0.0,0.0,1500.0,-0.0002929660549852997,0.0,36.026354999999995,0.0,0.0,1500.0,0.0,0.0,1.4778079986572266,2.657438319086566,,,,,,,,,
19.300367,51.4594253,0.0,-1.009099006652832,0.0,-0.24074846506118774,0.0,-0.022758938372135162,0.0,0.0,0.003490658503988659,0.11466813185602745,-2.7913151,0.0012217304763960308,-10.679390907287598,3.0,444.0,1500.0,-3.0,0.0,0.0,-0.32598876953125,0.0,11.0,197.0,1.4248812198638916,0.0,-3.31367564201355,-2.87,36.166029,19.0,11.0,0.0,-0.6268761157989502,0.0,0.0,0.0,1500.0,0.016380880028009415,0.0,36.145646,0.0,0.0,1500.0,0.0,0.0,2.201079845428467,2.657787384936965,,,,,,,,,
19.399875,51.4594253,0.0,-1.0502867698669434,0.0,-0.1416281759738922,0.0,-0.06599815934896469,0.0,0.0,0.005235987755982988,0.10768681484805014,-2.7913151,0.0012217304763960308,-11.255758285522461,3.0,444.0,1500.0,-3.0,0.0,0.0,-0.32598876953125,0.0,11.0,197.0,1.4248812198638916,0.0,-3.3389880657196045,-2.87,36.265537,19.0,11.0,0.0,-0.7315941452980042,0.0,0.0,0.0,1500.0,0.051193565130233765,0.0,36.225978,0.0,0.0,1500.0,0.0,0.0,2.389503002166748,2.6604053788149566,,,,,,,,,
19.500363,51.459425599999996,0.0,-0.8546450734138489,0.0,0.4773765206336975,0.0,-0.11680296063423157,0.0,0.0,0.02495820830351891,0.0715584993317675,-2.7913154,0.0012217304763960308,-11.9381103515625,3.0,444.0,1500.0,-3.0,0.0,0.0,-0.34679657220840454,0.0,11.0,197.0,1.4582768678665161,0.0,-3.408036470413208,-2.84,36.366025,19.0,11.0,0.0,-0.9612003564834595,0.0,0.0,0.0,1500.0,0.04884335771203041,0.0,36.34565,0.0,0.0,1500.0,0.0,0.0,1.6663923263549805,2.6631979056181474,,,,,,,,,
19.599860999999997,51.459425599999996,0.0,-0.8031604290008545,0.0,-0.40577399730682373,0.0,-0.1599254012107849,0.0,0.0,0.05777039824101231,0.045727626402251434,-2.7913154,0.0012217304763960308,-11.343310356140137,3.0,444.0,1500.0,-3.0,0.0,0.0,-0.34679657220840454,0.0,11.0,197.0,1.4582768678665161,0.0,-3.460110664367676,-2.84,36.465523,19.0,11.0,0.0,-1.124235987663269,0.0,0.0,0.0,1500.0,0.03579266369342804,0.0,36.425964,0.0,0.0,1500.0,0.0,0.0,2.003431797027588,2.658834582488162,,,,,,,,,
19.700384,51.459425599999996,0.0,-0.9318720698356628,0.0,-1.2752964496612549,0.0,-0.27512940764427185,0.0,0.0,0.10140362954087055,0.011344640137963142,-2.7913155,0.0012217304763960308,-11.34575080871582,3.0,444.0,1500.0,-3.0,0.0,0.0,-0.35373252630233765,0.0,11.0,197.0,1.4582768678665161,0.0,-3.5731000900268555,-2.7800000000000002,36.566046,19.0,11.0,0.0,-1.3136991262435913,0.0,0.0,0.0,1500.0,0.07742984592914581,0.0,36.546071,0.0,0.0,1500.0,0.0,0.0,1.889479637145996,2.65010793622819,,,,,,,,,
19.799966999999995,51.459425599999996,0.0,-0.8237543106079102,0.0,-1.4984467029571533,0.0,-0.3791279196739197,0.0,0.0,0.11344640137963143,-0.008552113334772215,-2.7913155,0.0012217304763960308,-10.418726921081543,3.0,444.0,1500.0,-3.0,0.0,0.0,-0.35373252630233765,0.0,11.0,197.0,1.4582768678665161,0.0,-3.6489739418029785,-2.7800000000000002,36.665628999999996,19.0,11.0,0.0,-1.40192711353302,0.0,0.0,0.0,1500.0,0.1330345869064331,0.0,36.626429,0.0,0.0,1500.0,0.0,0.0,1.6185808181762695,2.643650217995811,,,,,,,,,
19.900386999999995,51.4594251,0.0,-0.7619727253913879,0.0,-0.4571334719657898,0.0,-0.5381179451942444,0.0,0.0,0.09058258817850572,-0.03159045946109736,-2.7913154,0.0012217304763960308,-10.561080932617188,3.0,444.0,1500.0,-3.0,0.0,0.0,-0.34679657220840454,0.0,11.0,197.0,1.4026174545288086,0.0,-3.789264678955078,-2.68,36.766048999999995,18.0,11.0,0.0,-1.5137617588043213,0.0,0.0,0.0,1500.0,0.23209771513938904,0.0,36.745618,0.0,0.0,1500.0,0.0,0.0,1.8630719184875488,2.630211182755455,,,,,,,,,
19.999857999999996,51.4594251,0.0,-0.6178157329559326,0.0,-1.419858455657959,0.0,-0.6112084984779358,0.0,0.0,0.06300638599699529,-0.04380776422505767,-2.7913154,0.0012217304763960308,-11.333944320678711,3.0,444.0,1500.0,-3.0,0.0,0.0,-0.34679657220840454,0.0,11.0,197.0,1.4026174545288086,0.0,-3.8775346279144287,-2.68,36.86552,18.0,11.0,0.0,-1.6235151290893555,0.0,0.0,0.0,1500.0,0.3139806389808655,0.0,36.82595,0.0,0.0,1500.0,0.0,0.0,1.2583812475204468,2.6185174767670927,,,,,,,,,
20.100356999999995,51.4594239,0.0,-0.4221740663051605,0.0,0.5721011757850647,0.0,-0.6327425241470337,0.0,0.0,0.026703537555513242,-0.054628805587422516,-2.7913151999999997,0.0012217304763960308,-4.584436416625977,3.0,444.0,1500.0,-3.0,0.0,0.0,-0.3329247236251831,0.0,11.0,197.0,1.2690348625183105,0.0,-4.035083770751953,-2.54,36.966018999999996,18.0,11.0,0.0,-1.471123456954956,0.0,0.0,0.0,1500.0,0.3358587622642517,0.0,36.945515,0.0,0.0,1500.0,0.0,0.0,-0.25158464908599854,2.594431933089571,,,,,,,,,
20.199931999999997,51.4594239,0.0,-0.504549503326416,0.0,-1.2823657989501953,0.0,-0.6249207854270935,0.0,0.0,0.02548180707911721,-0.03543018381548489,-2.7913151999999997,0.0012217304763960308,-5.827022552490234,3.0,444.0,1500.0,-3.0,0.0,0.0,-0.3329247236251831,0.0,11.0,197.0,1.2690348625183105,0.0,-4.095897197723389,-2.54,37.065594,18.0,11.0,0.0,-1.038116455078125,0.0,0.0,0.0,1500.0,0.2932337820529938,0.0,37.026478999999995,0.0,0.0,1500.0,0.0,0.0,-0.5072211623191833,2.5776767722704252,,,,,,,,,
20.300388999999996,51.4594228,0.0,-0.504549503326416,0.0,0.9957319498062134,0.0,-0.651479959487915,0.0,0.0,0.034732052114687155,0.0164060949687467,-2.791315,0.0012217304763960308,-7.897279739379883,3.0,444.0,1500.0,-3.0,0.0,0.0,-0.3190528154373169,0.0,11.0,197.0,1.146584153175354,0.0,-4.153521537780762,-2.34,37.166050999999996,18.0,11.0,0.0,-0.6803395748138428,0.0,0.0,0.0,1500.0,0.3120347261428833,0.0,37.145669,0.0,0.0,1500.0,0.0,0.0,2.1513047218322754,2.572964383290041,,,,,,,,,
20.399861,51.4594228,0.0,-0.29346245527267456,0.0,1.0644686222076416,0.0,-0.8269340395927429,0.0,0.0,0.028623399732707007,0.04468042885105484,-2.791315,0.0012217304763960308,-10.495434761047363,3.0,444.0,1500.0,-3.0,0.0,0.0,-0.3190528154373169,0.0,11.0,197.0,1.146584153175354,0.0,-4.161989212036133,-2.34,37.265523,18.0,11.0,0.0,-0.6133306622505188,0.0,0.0,0.0,1500.0,0.281283438205719,0.0,37.225927,0.0,0.0,1500.0,0.0,0.0,2.5385959148406982,2.572964383290041,,,,,,,,,
20.500411,51.459421999999996,0.0,-0.31920477747917175,0.0,-0.012233181856572628,0.0,-1.023931860923767,0.0,0.0,0.018675022996339326,0.0757472895365539,-2.7913142,0.0012217304763960308,-11.152405738830566,3.0,444.0,1500.0,-3.0,0.0,0.0,-0.26356539130210876,0.0,11.0,197.0,1.0575289726257324,0.0,-4.197302341461182,-2.29,37.366073,18.0,11.0,0.0,-0.7304069399833679,0.0,0.0,0.0,1500.0,0.27976346015930176,0.0,37.345666,0.0,0.0,1500.0,0.0,0.0,3.3195407390594482,2.552544031041707,,,,,,,,,
20.599840999999998,51.459421999999996,0.0,-0.18534471094608307,0.0,-0.8055792450904846,0.0,-1.0815463066101074,0.0,0.0,0.01710422666954443,0.08464846872172499,-2.7913142,0.0012217304763960308,-10.129789352416992,3.0,444.0,1500.0,-3.0,0.0,0.0,-0.26356539130210876,0.0,11.0,197.0,1.0575289726257324,0.0,-4.217101573944092,-2.29,37.465503,18.0,11.0,0.0,-0.8759967088699341,0.0,0.0,0.0,1500.0,0.3367636501789093,0.0,37.425999,0.0,0.0,1500.0,0.0,0.0,1.1051262617111206,2.535963403147761,,,,,,,,,
20.700364999999998,51.459420599999994,0.0,-0.2574232220649719,0.0,-0.17349988222122192,0.0,-1.028935432434082,0.0,0.0,0.02303834612632515,0.10210176124166828,-2.7913128,0.0012217304763960308,-8.18310546875,3.0,444.0,1500.0,-3.0,0.0,0.0,-0.16646236181259155,0.0,11.0,197.0,0.9016826748847961,0.0,-4.275540828704834,-2.31,37.566027,18.0,11.0,0.0,-0.8363794088363647,0.0,0.0,0.0,1500.0,0.40800368785858154,0.0,37.546327,0.0,0.0,1500.0,0.0,0.0,2.1416561603546143,2.5055946741630595,,,,,,,,,
20.799962,51.459420599999994,0.0,-0.1956416517496109,0.0,0.29277288913726807,0.0,-1.0828075408935547,0.0,0.0,0.01064650843716541,0.12566370614359174,-2.7913128,0.0012217304763960308,-7.963912010192871,3.0,444.0,1500.0,-3.0,0.0,0.0,-0.16646236181259155,0.0,11.0,197.0,0.9016826748847961,0.0,-4.290588855743408,-2.31,37.665624,18.0,11.0,0.0,-0.7064863443374634,0.0,0.0,0.0,1500.0,0.4498268961906433,0.0,37.626512,0.0,0.0,1500.0,0.0,0.0,2.6145472526550293,2.4890140462691135,,,,,,,,,
20.900393,51.459419,0.0,-0.23682935535907745,0.0,0.6817138195037842,0.0,-1.1804900169372559,0.0,0.0,-0.02129301687433082,0.17558012275062956,-2.7913113999999997,0.0012217304763960308,-9.308368682861328,3.0,444.0,1500.0,-3.0,0.0,0.0,-0.06935930997133255,0.0,11.0,197.0,0.7235724925994873,0.0,-4.315183639526367,-2.29,37.766055,18.0,11.0,0.0,-0.5609321594238281,0.0,0.0,0.0,1500.0,0.485160231590271,0.0,37.745683,0.0,0.0,1500.0,0.0,0.0,3.1671314239501953,2.473655148851563,,,,,,,,,
20.999935,51.459419,0.0,-0.2728686034679413,0.0,1.1427029371261597,0.0,-1.2190535068511963,0.0,0.0,-0.053407075111026485,0.2092649773141201,-2.7913113999999997,0.0012217304763960308,-11.094944953918457,3.0,444.0,1500.0,-3.0,0.0,0.0,-0.06935930997133255,0.0,11.0,197.0,0.7235724925994873,0.0,-4.311198711395264,-2.29,37.865597,18.0,11.0,0.0,-0.6197031140327454,0.0,0.0,0.0,1500.0,0.5063409209251404,0.0,37.825962,0.0,0.0,1500.0,0.0,0.0,4.147129058837891,2.4720843525247687,,,,,,,,,
21.100389,51.4594174,0.0,0.0025742321740835905,0.0,2.7231688499450684,0.0,-1.245419979095459,0.0,0.0,-0.10576695267085638,0.22689280275926285,-2.7913094999999997,0.0012217304763960308,-10.198991775512695,3.0,444.0,1500.0,-3.0,0.0,0.0,0.062423381954431534,0.0,11.0,197.0,0.5454623699188232,0.0,-4.346588134765625,-2.27,37.966051,18.0,11.0,0.0,-0.8345304131507874,0.0,0.0,0.0,1500.0,0.5021616816520691,0.0,37.945657,0.0,0.0,1500.0,0.0,0.0,1.7251241207122803,2.493726435249498,,,,,,,,,
21.199940999999995,51.4594174,0.0,0.025742322206497192,0.0,0.44347620010375977,0.0,-1.1721620559692383,0.0,0.0,-0.10227629416686772,0.22741640153486117,-2.7913094999999997,0.0012217304763960308,-7.833522796630859,3.0,444.0,1500.0,-3.0,0.0,0.0,0.062423381954431534,0.0,11.0,197.0,0.5454623699188232,0.0,-4.36189079284668,-2.27,38.065602999999996,18.0,11.0,0.0,-0.8047773838043213,0.0,0.0,0.0,1500.0,0.35576438903808594,0.0,38.026407999999996,0.0,0.0,1500.0,0.0,0.0,1.3558118343353271,2.5129250570214356,,,,,,,,,
21.30037,51.4594156,0.0,-0.20079010725021362,0.0,0.7321357131004333,0.0,-1.1195948123931885,0.0,0.0,-0.08970992355250854,0.23841197582242543,-2.7913072999999997,0.0012217304763960308,-7.099179267883301,3.0,444.0,1500.0,-3.0,0.0,0.0,0.21501387655735016,0.0,11.0,197.0,0.3450884222984314,0.0,-4.390462875366211,-2.21,38.166032,18.0,11.0,0.0,-0.5628979206085205,0.0,0.0,0.0,1500.0,0.3470337390899658,0.0,38.145680999999996,0.0,0.0,1500.0,0.0,0.0,2.5484414100646973,2.550275103014114,,,,,,,,,
21.39987,51.4594156,0.0,-0.23682935535907745,0.0,1.4568649530410767,0.0,-1.1554614305496216,0.0,0.0,-0.09669124056048586,0.2532472744643772,-2.7913072999999997,0.0012217304763960308,-7.745292663574219,3.0,444.0,1500.0,-3.0,0.0,0.0,0.21501387655735016,0.0,11.0,197.0,0.3450884222984314,0.0,-4.3770599365234375,-2.21,38.265532,18.0,11.0,0.0,-0.38857460021972656,0.0,0.0,-0.00017453292519943296,1500.0,0.3445025086402893,0.0,38.22593,0.0,0.0,1500.0,0.0,0.0,3.831052780151367,2.5757569100932316,,,,,,,,,
21.500335,51.4594138,0.0,-0.23168089985847473,0.0,0.9451685547828674,0.0,-1.2434355020523071,0.0,0.0,-0.12932889757277982,0.28501226685067405,-2.7913055,0.0012217304763960308,-10.375628471374512,3.0,444.0,1500.0,-3.0,0.0,0.0,0.3398606479167938,0.0,11.0,197.0,0.14471450448036194,0.0,-4.363605499267578,-2.15,38.365997,18.0,11.0,0.0,-0.3382217586040497,0.0,0.0,-0.00017453292519943296,1500.0,0.3606654107570648,0.0,38.34562,0.0,0.0,1500.0,0.0,0.0,4.3051581382751465,2.5994933879203543,,,,,,,,,
21.599852999999996,51.4594138,0.0,-0.06693003326654434,0.0,1.642767071723938,0.0,-1.2254936695098877,0.0,0.0,-0.15219271077390556,0.30316369107141505,-2.7913055,0.0012217304763960308,-12.612039566040039,3.0,444.0,1500.0,-3.0,0.0,0.0,0.3398606479167938,0.0,11.0,197.0,0.14471450448036194,0.0,-4.345674991607666,-2.15,38.465514999999996,18.0,11.0,0.0,-0.49234384298324585,0.0,0.0,-0.00017453292519943296,1500.0,0.42417195439338684,0.0,38.425965999999995,0.0,0.0,1500.0,0.0,0.0,3.9882378578186035,2.608569100030725,,,,,,,,,
21.700378999999998,51.4594117,0.0,0.04376194626092911,0.0,0.4594481289386749,0.0,-1.0303229093551636,0.0,0.0,-0.15865042900628457,0.2909463863074548,-2.7913034999999997,0.0012217304763960308,-9.590457916259766,3.0,444.0,1500.0,-3.0,0.0,0.0,0.47857925295829773,0.0,11.0,197.0,-0.08905507624149323,0.0,-4.371688365936279,-2.15,38.566041,18.0,11.0,0.0,-0.7171358466148376,0.0,0.0,-0.00017453292519943296,1500.0,0.417623370885849,0.0,38.546233,0.0,0.0,1500.0,0.0,0.0,3.34991192817688,2.619041075542691,,,,,,,,,
21.799859999999995,51.4594117,0.0,0.005148464348167181,0.0,1.230745792388916,0.0,-0.9977514147758484,0.0,0.0,-0.1434660645139339,0.2759365547403035,-2.7913034999999997,0.0012217304763960308,-6.347177982330322,3.0,444.0,1500.0,-3.0,0.0,0.0,0.47857925295829773,0.0,11.0,197.0,-0.08905507624149323,0.0,-4.3790998458862305,-2.15,38.665521999999996,18.0,11.0,0.0,-0.6544244289398193,0.0,0.0,-0.00034906585039886593,1500.0,0.4578680098056793,0.0,38.626475,0.0,0.0,1500.0,0.0,0.0,2.2868189811706543,2.617470279215896,,,,,,,,,
21.900374999999997,51.4594096,0.0,-0.19049318134784698,0.0,0.48154351115226746,0.0,-0.9998098015785217,0.0,0.0,-0.13788101090755203,0.27663468644110123,-2.7913012999999998,0.0012217304763960308,-6.974842548370361,3.0,444.0,1500.0,-3.0,0.0,0.0,0.6311697363853455,0.0,11.0,197.0,-0.3228246569633484,0.0,-4.385437488555908,-2.09,38.766037,18.0,11.0,0.0,-0.29177382588386536,0.0,0.0,-0.00034906585039886593,1500.0,0.4584437608718872,0.0,38.745607,0.0,0.0,1500.0,0.0,0.0,3.367558002471924,2.617644812141095,,,,,,,,,
21.999790999999995,51.4594096,0.0,-0.29346245527267456,0.0,1.5897936820983887,0.0,-0.9953370094299316,0.0,0.0,-0.1577777643802874,0.2970550386894349,-2.7913012999999998,0.0013962634015954637,-10.873880386352539,3.0,444.0,1500.0,-3.0,0.0,0.0,0.6311697363853455,0.0,11.0,197.0,-0.3228246569633484,0.0,-4.357594013214111,-2.09,38.865452999999995,18.0,11.0,0.0,-0.2271188497543335,0.0,0.0,-0.00034906585039886593,1500.0,0.5239012837409973,0.0,38.825975,0.0,0.0,1500.0,0.0,0.0,4.258313179016113,2.624277063298674,,,,,,,,,
22.100331999999995,51.4594075,0.0,-0.17504778504371643,0.0,2.0633068084716797,0.0,-0.9880577921867371,0.0,0.0,-0.20036379812894903,0.32288591161895097,-2.7912988999999997,0.0013962634015954637,-11.505690574645996,3.0,444.0,1500.0,-3.0,0.0,0.0,0.797632098197937,0.0,11.0,197.0,-0.5565942525863647,0.0,-4.350494384765625,-2.09,38.965993999999995,18.0,11.0,0.0,-0.49566513299942017,0.0,0.0,-0.00034906585039886593,1500.0,0.5034127831459045,0.0,38.945640999999995,0.0,0.0,1500.0,0.0,0.0,4.389452934265137,2.6534240618069793,,,,,,,,,
22.199832999999998,51.4594075,0.0,-0.10296928882598877,0.0,3.584203004837036,0.0,-0.9244961738586426,0.0,0.0,-0.21275563581810877,0.3330088212805181,-2.7912988999999997,0.0013962634015954637,-9.674810409545898,3.0,444.0,1500.0,-3.0,0.0,0.0,0.797632098197937,0.0,11.0,197.0,-0.5565942525863647,0.0,-4.350440979003906,-2.09,39.065495,18.0,11.0,0.0,-0.6298635601997375,0.0,0.0,-0.0005235987755982988,1500.0,0.390837699174881,0.0,39.026447999999995,0.0,0.0,1500.0,0.0,0.0,2.244572639465332,2.6932175687524498,,,,,,,,,
22.300374999999995,51.4594052,0.0,-0.03089078515768051,0.0,1.2494169473648071,0.0,-0.8620961308479309,0.0,0.0,-0.1884955592153876,0.31852258848896514,-2.791296,0.0013962634015954637,-6.056698322296143,3.0,444.0,1500.0,-3.0,0.0,0.0,0.9987741112709045,0.0,11.0,197.0,-0.8126275539398193,0.0,-4.379181861877441,-2.08,39.166036999999996,18.0,11.0,0.0,-0.5693478584289551,0.0,0.0,-0.0005235987755982988,1500.0,0.2482326477766037,0.0,39.145626,0.0,0.0,1500.0,0.0,0.0,2.752242088317871,2.738072530528704,,,,,,,,,
22.399836999999998,51.4594052,0.0,-0.11326621472835541,0.0,1.5058982372283936,0.0,-0.8482498526573181,0.0,0.0,-0.1853539665617978,0.317649923862968,-2.791296,0.0012217304763960308,-6.623753547668457,3.0,444.0,1500.0,-3.0,0.0,0.0,0.9987741112709045,0.0,11.0,197.0,-0.8126275539398193,0.0,-4.369308948516846,-2.08,39.265499,18.0,11.0,0.0,-0.29474130272865295,0.0,0.0,-0.0005235987755982988,1500.0,0.23902982473373413,0.0,39.225933,0.0,0.0,1500.0,0.0,0.0,3.683743953704834,2.7557003559738473,,,,,,,,,
22.500363999999998,51.4594029,0.0,-0.2471262812614441,0.0,3.074611186981201,0.0,-0.952112078666687,0.0,0.0,-0.1895427567665842,0.35238197597765514,-2.7912936999999998,0.0012217304763960308,-9.595420837402344,3.0,444.0,1500.0,-3.0,0.0,0.0,1.158300518989563,0.0,11.0,197.0,-1.0686609745025635,0.0,-4.345945835113525,-2.04,39.366026,18.0,11.0,0.0,-0.15719260275363922,0.0,0.0,-0.0005235987755982988,1500.0,0.22654153406620026,0.0,39.345628,0.0,0.0,1500.0,0.0,0.0,5.295252799987793,2.7635543376078213,,,,,,,,,
22.599851,51.4594029,0.0,-0.19049318134784698,0.0,1.2894704341888428,0.0,-0.9614086747169495,0.0,0.0,-0.18448130193580065,0.3810053757103622,-2.7912936999999998,0.0012217304763960308,-12.075817108154297,3.0,444.0,1500.0,-3.0,0.0,0.0,1.158300518989563,0.0,11.0,197.0,-1.0686609745025635,0.0,-4.321071147918701,-2.04,39.465513,18.0,11.0,0.00017453292519943296,-0.3212888538837433,0.0,0.0,-0.0006981317007977319,1500.0,0.1716945469379425,0.0,39.42594,0.0,0.0,1500.0,0.0,0.0,6.055688858032227,2.75779475107624,,,,,,,,,
22.700303999999996,51.4594004,0.0,0.012871161103248596,0.0,0.7713311910629272,0.0,-0.8198122382164001,0.0,0.0,-0.17435839227423353,0.39828413530510604,-2.7912917,0.0012217304763960308,-10.61181640625,3.0,444.0,1500.0,-3.0,0.0,0.0,1.297019124031067,0.0,11.0,197.0,-1.346958041191101,0.0,-4.337536811828613,-2.0100000000000002,39.565965999999996,18.0,11.0,0.00017453292519943296,-0.6640369892120361,0.0,0.0,-0.0006981317007977319,1500.0,0.2028183788061142,0.0,39.54627,0.0,0.0,1500.0,0.0,0.0,2.740086555480957,2.736501734201909,,,,,,,,,
22.799858,51.4594004,0.0,0.048910412937402725,0.0,1.8688664436340332,0.0,-0.6838257908821106,0.0,0.0,-0.16580627893946132,0.39653880605311165,-2.7912917,0.0012217304763960308,-6.338814735412598,3.0,444.0,1500.0,-3.0,0.0,0.0,1.297019124031067,0.0,11.0,197.0,-1.346958041191101,0.0,-4.350079536437988,-2.0100000000000002,39.66552,18.0,11.0,0.00017453292519943296,-0.6497078537940979,0.0,0.0,-0.0006981317007977319,1500.0,0.16530540585517883,0.0,39.626507,0.0,0.0,1500.0,0.0,0.0,3.2234749794006348,2.7188739087567666,,,,,,,,,
22.900349999999996,51.459397499999994,0.0,-0.10296928882598877,0.0,1.0973970890045166,0.0,-0.7041555643081665,0.0,0.0,-0.17854718247901993,0.4050909193878839,-2.7912893,0.0012217304763960308,-6.144183158874512,3.0,444.0,1500.0,-3.0,0.0,0.0,1.4634815454483032,0.0,11.0,197.0,-1.6697826385498047,0.0,-4.367290496826172,-2.0,39.766011999999996,18.0,11.0,0.00034906585039886593,-0.31525593996047974,0.0,0.0,-0.0006981317007977319,1500.0,0.1229499951004982,0.0,39.745638,0.0,0.0,1500.0,0.0,0.0,3.628790855407715,2.6975808918824358,,,,,,,,,
22.999843,51.459397499999994,0.0,-0.10811775177717209,0.0,2.7418956756591797,0.0,-0.7024899125099182,0.0,0.0,-0.20769418098732523,0.42446407408502096,-2.7912893,0.0012217304763960308,-9.13679313659668,3.0,444.0,1500.0,-3.0,0.0,0.0,1.4634815454483032,0.0,11.0,197.0,-1.6697826385498047,0.0,-4.3454365730285645,-2.0,39.865505,18.0,11.0,0.00034906585039886593,-0.16534246504306793,0.0,0.0,-0.0008726646259971648,1500.0,0.11665195226669312,0.0,39.825947,0.0,0.0,1500.0,0.0,0.0,4.662209987640381,2.6939157004532475,,,,,,,,,
23.100370999999996,51.4593948,0.0,-0.2728686034679413,0.0,2.416991710662842,0.0,-0.6632649898529053,0.0,0.0,-0.2478367537831948,0.4483750848373433,-2.7912871,0.0012217304763960308,-11.829023361206055,3.0,444.0,1500.0,-3.0,0.0,0.0,1.6160719394683838,0.0,11.0,197.0,-1.9703435897827148,0.0,-4.331897258758545,-2.05,39.966032999999996,18.0,11.0,0.00034906585039886593,-0.35961395502090454,0.0,0.0,-0.0008726646259971648,1500.0,0.06895382702350616,0.0,39.945513,0.0,0.0,1500.0,0.0,0.0,5.972254753112793,2.7019442150124218,,,,,,,,,
23.199844999999996,51.4593948,0.0,-0.03603925183415413,0.0,3.3119821548461914,0.0,-0.5751366019248962,0.0,0.0,-0.2659881780039358,0.4392993727269728,-2.7912871,0.0012217304763960308,-10.075286865234375,3.0,444.0,1500.0,-3.0,0.0,0.0,1.6160719394683838,0.0,11.0,197.0,-1.9703435897827148,0.0,-4.329493045806885,-2.05,40.065507,18.0,11.0,0.00034906585039886593,-0.5907366871833801,0.0,0.0,-0.0008726646259971648,1500.0,-0.10256723314523697,0.0,40.026410999999996,0.0,0.0,1500.0,0.0,0.0,3.1936874389648438,2.7209683038591597,,,,,,,,,
23.300351999999997,51.459392099999995,0.0,-0.04118771478533745,0.0,2.2223563194274902,0.0,-0.42077308893203735,0.0,0.0,-0.25132741228718347,0.39828413530510604,-2.7912847999999997,0.0012217304763960308,-5.985742568969727,3.0,444.0,1500.0,-3.0,0.0,0.0,1.775598406791687,0.0,11.0,197.0,-2.270904541015625,0.0,-4.360503673553467,-2.07,40.166014,18.0,11.0,0.0005235987755982988,-0.5400477647781372,0.0,0.0,-0.0008726646259971648,1500.0,-0.23784111440181732,0.0,40.145624999999995,0.0,0.0,1500.0,0.0,0.0,2.9176604747772217,2.7593655474030347,,,,,,,,,
23.399806999999996,51.459392099999995,0.0,-0.2831655442714691,0.0,1.7093232870101929,0.0,-0.4219450056552887,0.0,0.0,-0.24033183799961916,0.38641589639154456,-2.7912847999999997,0.0012217304763960308,-5.6158127784729,3.0,444.0,1500.0,-3.0,0.0,0.0,1.775598406791687,0.0,11.0,197.0,-2.270904541015625,0.0,-4.351320743560791,-2.07,40.265468999999996,18.0,11.0,0.0005235987755982988,-0.26720234751701355,0.0,0.0,-0.0010471975511965976,1500.0,-0.267659991979599,0.0,40.225947999999995,0.0,0.0,1500.0,0.0,0.0,3.91416597366333,2.7876398812853433,,,,,,,,,
23.500357,51.459389699999996,0.0,-0.18534471094608307,0.0,2.5333590507507324,0.0,-0.5357614159584045,0.0,0.0,-0.23701571242082994,0.3996803987067015,-2.791283,0.0012217304763960308,-9.030892372131348,3.0,444.0,1500.0,-3.0,0.0,0.0,1.9004452228546143,0.0,11.0,197.0,-2.538069725036621,0.0,-4.323426723480225,-1.98,40.366019,18.0,11.0,0.0005235987755982988,-0.06491591036319733,0.0,0.0,-0.0010471975511965976,1500.0,-0.266434907913208,0.0,40.345639,0.0,0.0,1500.0,0.0,0.0,4.945489406585693,2.8103291615612696,,,,,,,,,
23.59982,51.459389699999996,0.0,-0.24197782576084137,0.0,2.7759883403778076,0.0,-0.5147404074668884,0.0,0.0,-0.24277529895241123,0.4132939668722572,-2.791283,0.0012217304763960308,-11.059941291809082,3.0,444.0,1500.0,-3.0,0.0,0.0,1.9004452228546143,0.0,11.0,197.0,-2.538069725036621,0.0,-4.291927814483643,-1.98,40.465482,18.0,11.0,0.0006981317007977319,-0.19205515086650848,0.0,0.0,-0.0010471975511965976,1500.0,-0.30560028553009033,0.0,40.425968,0.0,0.0,1500.0,0.0,0.0,6.273697853088379,2.807536634758079,,,,,,,,,
