time_index,tx_controls_0,battery_0,magnetometer_0,tx_controls_4,servos_3,servos_5,servos_2,servos_4,mode_1,time_actual,magnetometer_2,global_position_latitude,velocity_z,position_z,attitude_pitch,velocity_x,servos_0,tx_controls_7,mode_2,attitude_roll,axis_rate_roll,wind_y,global_position_longitude,tx_controls_1,velocity_y,mode_0,axis_rate_yaw,attitude_yaw,position_x,tx_controls_3,tx_controls_5,altitude_gps,acceleration_x,position_y,servos_6,servos_1,wind_x,time_flight,airspeed_0,altitude_baro,tx_controls_2,acceleration_y,tx_controls_6,magnetometer_1,acceleration_z,gps_sat_count_0,axis_rate_pitch,current_0,servos_7,rpm_1,rpm_0,battery_1,current_1,current_3,airspeed_1,current_2
0.0,1500.0,20.997539520263672,88.0,0.0,0.0,0.0,0.0,0.0,0.0,7.335192999999999,498.0,39.8421441,0.0,0.0,0.01064650843716541,0.0,0.0,0.0,0.0,0.0005235987755982988,-9.857953124903849e-05,0.0,-105.21264869999999,1500.0,0.0,0.0,5.915665636615515e-05,0.0,0.0,1500.0,0.0,1811.3400000000001,1.142864465713501,0.0,0.0,0.0,0.0,7.354189,0.0,-1.2341408729553223,0.0,-0.15467819571495056,0.0,-71.0,-9.16388988494873,18.0,-7.161926767441608e-06,-0.7506400942802429,0.0,,,,,,,
0.1000160000000001,1500.0,20.997539520263672,89.0,0.0,0.0,0.0,0.0,0.0,0.0,7.414726,503.0,39.8421441,0.0,0.0,0.01064650843716541,0.0,0.0,0.0,0.0,0.0005235987755982988,0.0001266190951459309,0.0,-105.21264869999999,1500.0,0.0,0.0,-4.2743926487854345e-05,0.0,0.0,1500.0,0.0,1811.3400000000001,1.1548006534576416,0.0,0.0,0.0,0.0,7.454205,0.0,-1.2448725700378418,0.0,-0.2099970579147339,0.0,-72.0,-9.162053108215332,18.0,9.357427488700452e-06,-0.7506400942802429,0.0,,,,,,,
0.20001399999999947,1500.0,20.992650985717773,90.0,0.0,0.0,0.0,0.0,0.0,0.0,7.535698999999999,505.0,39.8421429,0.0,0.0,0.01064650843716541,0.0,0.0,0.0,0.0,0.0005235987755982988,-7.578922625881782e-05,0.0,-105.2126481,1500.0,0.0,0.0,2.427375522632187e-06,0.0,0.0,1500.0,0.0,1811.21,1.155683994293213,0.0,0.0,0.0,0.0,7.554202999999999,0.0,-1.2770675420761108,0.0,-0.0949307456612587,0.0,-72.0,-9.152517318725586,18.0,2.540300556571851e-05,-0.7494221329689026,0.0,,,,,,,
0.3001269999999998,1500.0,20.996490478515625,88.0,0.0,0.0,0.0,0.0,0.0,0.0,7.6146959999999995,501.0,39.8421429,0.0,0.0,0.01064650843716541,0.0,0.0,0.0,0.0,0.0005235987755982988,-3.602047690538242e-05,0.0,-105.2126481,1500.0,0.0,0.0,8.152647527001395e-08,0.0,0.0,1500.0,0.0,1811.21,1.1414697170257568,0.0,0.0,0.0,0.0,7.654316,0.0,-1.3038966655731201,0.0,-0.22636684775352478,0.0,-73.0,-9.172419548034668,18.0,7.353726502702193e-06,-0.7506400942802429,0.0,,,,,,,
0.4000159999999999,1500.0,20.993349075317383,89.0,0.0,0.0,0.0,0.0,0.0,0.0,7.735208,501.0,39.8421421,0.0,0.0,0.01064650843716541,0.0,0.0,0.0,0.0,0.0005235987755982988,3.7516619479694265e-05,0.0,-105.2126481,1500.0,0.0,0.0,-2.437938349917929e-05,0.0,0.0,1500.0,0.0,1811.05,1.2042014598846436,0.0,0.0,0.0,0.0,7.754205,0.0,-1.2502384185791016,0.0,-0.1247437372803688,0.0,-72.0,-9.139350891113281,18.0,1.1793874881275927e-05,-0.7561178803443909,0.0,,,,,,,
0.5000330000000002,1500.0,20.988113403320312,88.0,0.0,0.0,0.0,0.0,0.0,0.0,7.814207,502.0,39.8421421,0.0,0.0,0.01064650843716541,0.0,0.0,0.0,0.0,0.0005235987755982988,-6.286993256282301e-05,0.0,-105.2126481,1500.0,0.0,0.0,3.281201106942568e-05,0.0,0.0,1500.0,0.0,1811.05,1.1362907886505127,0.0,0.0,0.0,0.0,7.854222,0.0,-1.1965800523757935,0.0,-0.2176114320755005,0.0,-71.0,-9.187713623046875,18.0,-6.687132514164703e-07,-0.7533794641494751,0.0,,,,,,,
0.600009,1500.0,20.992650985717773,91.0,0.0,0.0,0.0,0.0,0.0,0.0,7.935185,503.0,39.842141399999996,0.0,0.0,0.01064650843716541,0.0,0.0,0.0,0.0,0.0005235987755982988,9.69649329469193e-05,0.0,-105.2126481,1500.0,0.0,0.0,-1.6486172429541346e-05,0.0,0.0,1500.0,0.0,1810.8700000000001,1.1648424863815308,0.0,0.0,0.0,0.0,7.954198,0.0,-1.207311749458313,0.0,-0.18208357691764832,0.0,-72.0,-9.166854858398438,18.0,1.6666405968737728e-05,-0.7509440779685974,0.0,,,,,,,
0.7000829999999993,1500.0,20.99230194091797,91.0,0.0,0.0,0.0,0.0,0.0,0.0,8.014268999999999,498.0,39.842141399999996,0.0,0.0,0.01064650843716541,0.0,0.0,0.0,0.0,0.0005235987755982988,-5.2652790787381226e-05,0.0,-105.2126481,1500.0,0.0,0.0,1.011255024418151e-05,0.0,0.0,1500.0,0.0,1810.8700000000001,1.165917992591858,0.0,0.0,0.0,0.0,8.054272,0.0,-1.1375559568405151,0.0,-0.1499129682779312,0.0,-70.0,-9.155474662780762,18.0,8.219343257527234e-06,-0.7520090341567993,0.0,,,,,,,
0.8000240000000005,1500.0,20.993349075317383,90.0,0.0,0.0,0.0,0.0,0.0,0.0,8.135212,504.0,39.8421407,0.0,0.0,0.01064650843716541,0.0,0.0,0.0,0.0,0.0005235987755982988,5.944451800754161e-06,0.0,-105.2126478,1500.0,0.0,0.0,-1.1037373528688225e-05,0.0,0.0,1500.0,0.0,1810.73,1.1403613090515137,0.0,0.0,0.0,0.0,8.154213,0.0,-1.2180434465408325,0.0,-0.18750767409801483,0.0,-69.0,-9.16999340057373,18.0,7.459748950708749e-06,-0.7520090341567993,0.0,,,,,,,
0.9000179999999993,1500.0,21.02523422241211,92.0,0.0,0.0,0.0,0.0,0.0,0.0,8.214224999999999,502.0,39.8421407,0.0,0.0,0.01064650843716541,0.0,0.0,0.0,0.0,0.0005235987755982988,-5.539129012671206e-06,0.0,-105.2126478,1500.0,0.0,0.0,-1.6095395517193772e-05,0.0,0.0,1500.0,0.0,1810.73,1.1676641702651978,0.0,0.0,0.0,0.0,8.254207,0.0,-1.207311749458313,0.0,-0.13109992444515228,0.0,-72.0,-9.14486312866211,18.0,1.9111482546150214e-05,-0.7631181478500366,0.0,,,,,,,
1.000026,1500.0,21.03524398803711,92.0,0.0,0.0,0.0,0.0,0.0,0.0,8.335211,503.0,39.8421401,0.0,0.0,0.01064650843716541,0.0,0.0,0.0,0.0,0.0005235987755982988,-3.331372898386368e-05,0.0,-105.21264749999999,1500.0,0.0,0.0,-6.6121392951580205e-06,0.0,0.0,1500.0,0.0,1810.6000000000001,1.1500887870788574,0.0,0.0,0.0,0.0,8.354215,0.0,-1.207311749458313,0.0,-0.19895118474960327,0.0,-70.0,-9.164849281311035,18.0,-6.425710196304411e-07,-0.7725538015365601,0.0,,,,,,,
1.1000169999999994,1500.0,21.037338256835938,92.0,0.0,0.0,0.0,0.0,0.0,0.0,8.414743999999999,501.0,39.8421401,0.0,0.0,0.01064650843716541,0.0,0.0,0.0,0.0,0.0005235987755982988,3.475400027853152e-05,0.0,-105.21264749999999,1500.0,0.0,0.0,-2.219699214937521e-05,0.0,0.0,1500.0,0.0,1810.6000000000001,1.152005910873413,0.0,0.0,0.0,0.0,8.454206,0.0,-1.1697509288787842,0.0,-0.14455944299697876,0.0,-69.0,-9.16786003112793,18.0,1.4523482929613879e-05,-0.764336109161377,0.0,,,,,,,
1.200035999999999,1500.0,21.032102584838867,92.0,0.0,0.0,0.0,0.0,0.0,0.0,8.535722999999999,504.0,39.8421393,0.0,0.0,0.01064650843716541,0.0,0.0,0.0,0.0,0.0005235987755982988,-4.3953341182291164e-05,0.0,-105.2126468,1500.0,0.0,0.0,1.5316743146689165e-05,0.0,0.0,1500.0,0.0,1810.47,1.1552622318267822,0.0,0.0,0.0,0.0,8.554224999999999,0.0,-1.3038966655731201,0.0,-0.16615988314151764,0.0,-73.0,-9.185420989990234,18.0,-4.643456402724554e-06,-0.7684448957443237,0.0,,,,,,,
1.3000179999999997,1500.0,21.036291122436523,95.0,0.0,0.0,0.0,0.0,0.0,0.0,8.614723999999999,497.0,39.8421393,0.0,0.0,0.01064650843716541,0.0,0.0,0.0,0.0,0.0005235987755982988,2.922876187620602e-05,0.0,-105.2126468,1500.0,0.0,0.0,-1.8314141905140636e-06,0.0,0.0,1500.0,0.0,1810.47,1.1648989915847778,0.0,0.0,0.0,0.0,8.654207,0.0,-1.0892634391784668,0.0,-0.1705097258090973,0.0,-75.0,-9.159858703613281,18.0,2.728576487909002e-05,-0.7629661560058594,0.0,,,,,,,
1.4000299999999992,1500.0,21.027563095092773,94.0,0.0,0.0,0.0,0.0,0.0,0.0,8.735223,503.0,39.8421387,0.0,0.0,0.01064650843716541,0.0,0.0,0.0,0.0,0.0005235987755982988,-3.554884430761068e-05,0.0,-105.21264599999999,1500.0,0.0,0.0,1.2663415101116336e-05,0.0,0.0,1500.0,0.0,1810.33,1.1614090204238892,0.0,0.0,0.0,0.0,8.754218999999999,0.0,-1.073166012763977,0.0,-0.13045166432857513,0.0,-72.0,-9.162223815917969,18.0,1.5064643756848788e-05,-0.7707278728485107,0.0,,,,,,,
1.500057,1500.0,21.03524398803711,94.0,0.0,0.0,0.0,0.0,0.0,0.0,8.814093,500.0,39.8421387,0.0,0.0,0.01064650843716541,0.0,0.0,0.0,0.0,0.0005235987755982988,-1.6448307233256315e-05,0.0,-105.21264599999999,1500.0,0.0,0.0,-1.4808068244051983e-05,0.0,0.0,1500.0,0.0,1810.33,1.1484911441802979,0.0,0.0,0.0,0.0,8.854246,0.0,-1.1590192317962646,0.0,-0.19352585077285767,0.0,-74.0,-9.17485523223877,18.0,2.2403639487225027e-05,-0.7670754790306091,0.0,,,,,,,
1.6000069999999997,1500.0,21.032102584838867,93.0,0.0,0.0,0.0,0.0,0.0,0.0,8.93517,504.0,39.8421381,0.0,0.0,0.01064650843716541,0.0,0.0,0.0,0.0,0.0005235987755982988,6.2170594734182666e-06,0.0,-105.2126449,1500.0,0.0,0.0,-7.039949877090711e-06,0.0,0.0,1500.0,0.0,1810.29,1.1713571548461914,0.0,0.0,0.0,0.0,8.954196,0.0,-1.1482876539230347,0.0,-0.13964563608169556,0.0,-71.0,-9.160181045532227,18.0,8.693575582635671e-06,-0.7711843252182007,0.0,,,,,,,
1.7000340000000005,1500.0,21.03524398803711,95.0,0.0,0.0,0.0,0.0,0.0,0.0,9.014228,500.0,39.8421381,0.0,0.0,0.01064650843716541,0.0,0.0,0.0,0.0,0.0005235987755982988,-3.946734352883173e-05,0.0,-105.2126449,1500.0,0.0,0.0,8.360799308469706e-06,0.0,0.0,1500.0,0.0,1810.29,1.1524232625961304,0.0,0.0,0.0,0.0,9.054223,0.0,-1.3253599405288696,0.0,-0.16916212439537048,0.0,-73.0,-9.175362586975098,18.0,9.836835902429627e-06,-0.764336109161377,0.0,,,,,,,
1.8000360000000004,1500.0,21.033382415771484,92.0,0.0,0.0,0.0,0.0,0.0,0.0,9.135175,500.0,39.842137699999995,0.0,0.0,0.01064650843716541,0.0,0.0,0.0,0.0,0.0005235987755982988,1.2771126508363711e-05,0.0,-105.212644,1500.0,0.0,0.0,-3.3601618689911213e-07,0.0,0.0,1500.0,0.0,1810.26,1.1622161865234375,0.0,0.0,0.0,0.0,9.154225,0.0,-1.2448725700378418,0.0,-0.16272933781147003,0.0,-73.0,-9.183290481567383,18.0,2.119247335475442e-05,-0.7707278728485107,0.0,,,,,,,
1.9000240000000002,1500.0,21.03524398803711,92.0,0.0,0.0,0.0,0.0,0.0,0.0,9.214212999999999,502.0,39.842137699999995,0.0,0.0,0.01064650843716541,0.0,0.0,0.0,0.0,0.0005235987755982988,-3.1148421266296376e-05,0.0,-105.212644,1500.0,0.0,0.0,8.757325285685736e-06,0.0,0.0,1500.0,0.0,1810.26,1.17244553565979,0.0,0.0,0.0,0.0,9.254213,0.0,-1.207311749458313,0.0,-0.15137483179569244,0.0,-73.0,-9.18143367767334,18.0,2.4058612296501312e-06,-0.7657055258750916,0.0,,,,,,,
2.0000090000000004,1500.0,21.030006408691406,92.0,0.0,0.0,0.0,0.0,0.0,0.0,9.335198,503.0,39.8421373,0.0,0.0,0.01064650843716541,0.0,0.0,0.0,0.0,0.0005235987755982988,-1.1434977900030048e-06,0.0,-105.21264339999999,1500.0,0.0,0.0,-1.811125497789527e-05,0.0,0.0,1500.0,0.0,1810.23,1.1437251567840576,0.0,0.0,0.0,0.0,9.354198,0.0,-1.1321901082992554,0.0,-0.17540636658668518,0.0,-70.0,-9.173839569091797,18.0,7.782208096712214e-06,-0.7698143720626831,0.0,,,,,,,
2.1000309999999995,1500.0,21.028961181640625,92.0,0.0,0.0,0.0,0.0,0.0,0.0,9.414757999999999,507.0,39.8421373,0.0,0.0,0.01064650843716541,0.0,0.0,0.0,0.0,0.0005235987755982988,1.5028053534306451e-05,0.0,-105.21264339999999,1500.0,0.0,0.0,-1.9348209105174292e-05,0.0,0.0,1500.0,0.0,1810.23,1.167252540588379,0.0,0.0,0.0,0.0,9.45422,0.0,-1.142921805381775,0.0,-0.1446727216243744,0.0,-72.0,-9.156875610351562,18.0,4.728667317180535e-06,-0.764336109161377,0.0,,,,,,,
2.2000279999999997,1500.0,21.0345458984375,94.0,0.0,0.0,0.0,0.0,0.0,0.0,9.535718,512.0,39.8421368,0.0,0.0,0.01064650843716541,0.0,0.0,0.0,0.0,0.0005235987755982988,-2.6391379433870058e-05,0.0,-105.2126428,1500.0,0.0,0.0,-2.8861702523218565e-06,0.0,0.0,1500.0,0.0,1810.2,1.1539967060089111,0.0,0.0,0.0,0.0,9.554217,0.0,-1.2287750244140625,0.0,-0.16199782490730286,0.0,-73.0,-9.177393913269043,18.0,1.491890155911713e-05,-0.7692059278488159,0.0,,,,,,,
2.300025999999999,1500.0,21.03838539123535,94.0,0.0,0.0,0.0,0.0,0.0,0.0,9.614773,508.0,39.8421368,0.0,0.0,0.01064650843716541,0.0,0.0,0.0,0.0,0.0005235987755982988,2.0171374821901934e-05,0.0,-105.2126428,1500.0,0.0,0.0,-7.325543995454311e-06,0.0,0.0,1500.0,0.0,1810.2,1.149819016456604,0.0,0.0,0.0,0.0,9.654214999999999,0.0,-1.0946292877197266,0.0,-0.17203649878501892,0.0,-73.0,-9.17780590057373,18.0,3.2271706150858676e-06,-0.764336109161377,0.0,,,,,,,
2.400008999999999,1500.0,21.032102584838867,90.0,0.0,0.0,0.0,0.0,0.0,0.0,9.735189,507.0,39.842136499999995,0.0,0.0,0.01064650843716541,0.0,0.0,0.0,0.0,0.0005235987755982988,-2.9745161799034e-05,0.0,-105.2126425,1500.0,0.0,0.0,1.1031453790043856e-05,0.0,0.0,1500.0,0.0,1810.18,1.1723177433013916,0.0,0.0,0.0,0.0,9.754197999999999,0.0,-1.0999951362609863,0.0,-0.15828968584537506,0.0,-70.0,-9.192456245422363,18.0,2.885869033425674e-06,-0.7711843252182007,0.0,,,,,,,
2.500026,1500.0,21.03838539123535,93.0,0.0,0.0,0.0,0.0,0.0,0.0,9.8142,503.0,39.842136499999995,0.0,0.0,0.01064650843716541,0.0,0.0,0.0,0.0,0.0005235987755982988,3.824975579554234e-06,0.0,-105.2126425,1500.0,0.0,0.0,-3.309829042268127e-06,0.0,0.0,1500.0,0.0,1810.18,1.1682896614074707,0.0,0.0,0.0,0.0,9.854215,0.0,-1.1375559568405151,0.0,-0.16825303435325623,0.0,-70.0,-9.175715446472168,18.0,2.1203737823964777e-05,-0.7684448957443237,0.0,,,,,,,
2.6000359999999993,1500.0,21.039201736450195,94.0,0.0,0.0,0.0,0.0,0.0,0.0,9.93521,509.0,39.8421362,0.0,0.0,0.01064650843716541,0.0,0.0,0.0,0.0,0.0005235987755982988,-7.467692900653769e-06,0.0,-105.21264199999999,1500.0,0.0,0.0,3.4655193369176348e-06,0.0,0.0,1500.0,0.0,1810.1200000000001,1.1636313199996948,0.0,0.0,0.0,0.0,9.954225,0.0,-1.2341408729553223,0.0,-0.15419557690620422,0.0,-74.0,-9.174215316772461,18.0,8.89143017327989e-06,-0.7707278728485107,0.0,,,,,,,
2.700011,1500.0,21.03838539123535,95.0,0.0,0.0,0.0,0.0,0.0,0.0,10.014757999999999,504.0,39.8421362,0.0,0.0,0.01064650843716541,0.0,0.0,0.0,0.0,0.0005235987755982988,-7.972028828904458e-06,0.0,-105.21264199999999,1500.0,0.0,0.0,-1.2012573006803704e-05,0.0,0.0,1500.0,0.0,1810.1200000000001,1.157273530960083,0.0,0.0,0.0,0.0,10.0542,0.0,-1.2448725700378418,0.0,-0.17130902409553528,0.0,-74.0,-9.179084777832031,18.0,1.0780404856657619e-05,-0.7670754790306091,0.0,,,,,,,
2.8000799999999995,1500.0,21.03838539123535,95.0,0.0,0.0,0.0,0.0,0.0,0.0,10.135326,500.0,39.842135999999996,0.0,0.0,0.01064650843716541,0.0,0.0,0.0,0.0,0.0005235987755982988,9.725588093908689e-06,0.0,-105.21264149999999,1500.0,0.0,0.0,-1.5039871677373197e-05,0.0,0.0,1500.0,0.0,1810.08,1.1584419012069702,0.0,0.0,0.0,0.0,10.154269,0.0,-1.2019459009170532,0.0,-0.15959292650222778,0.0,-73.0,-9.168535232543945,18.0,-1.0866307863434085e-06,-0.7711843252182007,0.0,,,,,,,
2.90001,1500.0,21.036291122436523,95.0,0.0,0.0,0.0,0.0,0.0,0.0,10.214198,504.0,39.842135999999996,0.0,0.0,0.01064650843716541,0.0,0.0,0.0,0.0,0.0005235987755982988,-2.6644289524146032e-05,0.0,-105.21264149999999,1500.0,0.0,0.0,5.785650011419045e-06,0.0,0.0,1500.0,0.0,1810.08,1.1673773527145386,0.0,0.0,0.0,0.0,10.254199,0.0,-0.9551177024841309,0.0,-0.17720265686511993,0.0,-75.0,-9.181523323059082,18.0,4.477076900921901e-06,-0.7684448957443237,0.0,,,,,,,
3.0000350000000005,1500.0,21.03687286376953,97.0,0.0,0.0,0.0,0.0,0.0,0.0,10.335172,504.0,39.8421357,0.0,0.0,0.01064650843716541,0.0,0.0,0.0,0.0,0.0005235987755982988,-6.082530949130325e-06,0.0,-105.2126411,1500.0,0.0,0.0,-1.990561949815773e-05,0.0,0.0,1500.0,0.0,1810.04,1.1644763946533203,0.0,0.0,0.0,0.0,10.354224,0.0,-1.0248734951019287,0.0,-0.17319007217884064,0.0,-74.0,-9.163956642150879,18.0,2.7460658767297075e-05,-0.7676844596862793,0.0,,,,,,,
3.1000060000000005,1500.0,21.037338256835938,98.0,0.0,0.0,0.0,0.0,0.0,0.0,10.414742,504.0,39.8421357,0.0,0.0,0.01064650843716541,0.0,0.0,0.0,0.0,0.0005235987755982988,-2.3362102776147555e-05,0.0,-105.2126411,1500.0,0.0,0.0,-5.590212283351615e-06,0.0,0.0,1500.0,0.0,1810.04,1.1518011093139648,0.0,0.0,0.0,0.0,10.454195,0.0,-1.019507646560669,0.0,-0.14527972042560577,0.0,-72.0,-9.154192924499512,18.0,1.351995617631559e-06,-0.7684448957443237,0.0,,,,,,,
3.200127,1500.0,21.037338256835938,99.0,0.0,0.0,0.0,0.0,0.0,0.0,10.535741,504.0,39.8421354,0.0,0.0,0.01064650843716541,0.0,0.0,0.0,0.0,0.0005235987755982988,-7.868087991414861e-06,0.0,-105.21264079999999,1500.0,0.0,0.0,8.432129009796807e-08,0.0,0.0,1500.0,0.0,1810.03,1.15008544921875,0.0,0.0,0.0,0.0,10.554316,0.0,-0.9873126745223999,0.0,-0.1782907098531723,0.0,-73.0,-9.167976379394531,18.0,1.6048646141323192e-05,-0.7684448957443237,0.0,,,,,,,
3.299999999999999,1500.0,21.037338256835938,95.0,0.0,0.0,0.0,0.0,0.0,0.0,10.61474,498.0,39.8421354,0.0,0.0,0.01064650843716541,0.0,0.0,0.0,0.0,0.0005235987755982988,-1.2537777867821273e-05,0.0,-105.21264079999999,1500.0,0.0,0.0,-1.4985104189738298e-06,0.0,0.0,1500.0,0.0,1810.03,1.1614322662353516,0.0,0.0,0.0,0.0,10.654188999999999,0.0,-0.9819468855857849,0.0,-0.16491644084453583,0.0,-72.0,-9.159042358398438,18.0,1.0927029884813502e-05,-0.7711843252182007,0.0,,,,,,,
3.4000369999999993,1500.0,21.035709381103516,94.0,0.0,0.0,0.0,0.0,0.0,0.0,10.735183,501.0,39.8421351,0.0,0.0,0.01064650843716541,0.0,0.0,0.0,0.0,0.0005235987755982988,-2.283533035777144e-05,0.0,-105.21264049999999,1500.0,0.0,0.0,8.018366759065245e-06,0.0,0.0,1500.0,0.0,1810.02,1.1747394800186157,0.0,0.0,0.0,0.0,10.754226,0.0,-1.073166012763977,0.0,-0.17241427302360535,0.0,-68.0,-9.168822288513184,18.0,5.521526755657023e-06,-0.7737717628479004,0.0,,,,,,,
3.499993,1500.0,21.03314781188965,92.0,0.0,0.0,0.0,0.0,0.0,0.0,10.814193,503.0,39.8421351,0.0,0.0,0.01064650843716541,0.0,0.0,0.0,0.0,0.0005235987755982988,3.1303165489792194e-06,0.0,-105.21264049999999,1500.0,0.0,0.0,-4.5170409782845475e-06,0.0,0.0,1500.0,0.0,1810.02,1.1509257555007935,0.0,0.0,0.0,0.0,10.854182,0.0,-1.0463368892669678,0.0,-0.16144363582134247,0.0,-71.0,-9.164041519165039,18.0,8.083892790074754e-06,-0.7766625881195068,0.0,,,,,,,
3.6001569999999994,1500.0,21.03524398803711,94.0,0.0,0.0,0.0,0.0,0.0,0.0,10.936572,500.0,39.8421349,0.0,0.0,0.01064650843716541,0.0,0.0,0.0,0.0,0.0005235987755982988,-1.504860245374349e-05,0.0,-105.21264029999999,1500.0,0.0,0.0,-3.938666918429448e-06,0.0,0.0,1500.0,0.0,1810.01,1.1771305799484253,0.0,0.0,0.0,0.0,10.954346,0.0,-1.0034102201461792,0.0,-0.15614256262779236,0.0,-72.0,-9.1715087890625,18.0,6.67395571132972e-06,-0.7698143720626831,0.0,,,,,,,
3.7000460000000004,1500.0,21.036291122436523,91.0,0.0,0.0,0.0,0.0,0.0,0.0,11.014236,496.0,39.8421349,0.0,0.0,0.01064650843716541,0.0,0.0,0.0,0.0,0.0005235987755982988,-7.236230306926719e-06,0.0,-105.21264029999999,1500.0,0.0,0.0,-9.595769543587847e-08,0.0,0.0,1500.0,0.0,1810.01,1.1428756713867188,0.0,0.0,0.0,0.0,11.054235,0.0,-1.083897590637207,0.0,-0.17384213209152222,0.0,-73.0,-9.173065185546875,18.0,9.50130344996571e-06,-0.7739237546920776,0.0,,,,,,,
3.8001570000000005,1500.0,21.039201736450195,95.0,0.0,0.0,0.0,0.0,0.0,0.0,11.135216999999999,501.0,39.8421346,0.0,0.0,0.01064650843716541,0.0,0.0,0.0,0.0,0.0005235987755982988,1.1984029341655004e-06,0.0,-105.2126397,1500.0,0.0,0.0,-1.5518338337588844e-05,0.0,0.0,1500.0,0.0,1810.0,1.1605361700057983,0.0,0.0,0.0,0.0,11.154346,0.0,-1.051702618598938,0.0,-0.17758259177207947,0.0,-72.0,-9.176170349121094,18.0,1.7217493304689664e-05,-0.7722492814064026,0.0,,,,,,,
3.9001669999999997,1500.0,21.040481567382812,94.0,0.0,0.0,0.0,0.0,0.0,0.0,11.214372,498.0,39.8421346,0.0,0.0,0.01064650843716541,0.0,0.0,0.0,0.0,0.0005235987755982988,-3.0872555553159904e-05,0.0,-105.2126397,1500.0,0.0,0.0,4.428806191840415e-06,0.0,0.0,1500.0,0.0,1810.0,1.1465210914611816,0.0,0.0,0.0,0.0,11.254356,0.0,-0.7458503842353821,0.0,-0.16389979422092438,0.0,-68.0,-9.168862342834473,18.0,1.4726522752116833e-05,-0.7684448957443237,0.0,,,,,,,
4.000171999999999,1500.0,21.0394344329834,94.0,0.0,0.0,0.0,0.0,0.0,0.0,11.335224,499.0,39.8421343,0.0,0.0,0.01064650843716541,0.0,0.0,0.0,0.0,0.0005235987755982988,-1.0604813034616913e-05,0.0,-105.212639,1500.0,0.0,0.0,-5.346502322329701e-06,0.0,0.0,1500.0,0.0,1810.02,1.1547693014144897,0.0,0.0,0.0,0.0,11.354360999999999,0.0,-0.885361909866333,0.0,-0.16455678641796112,0.0,-75.0,-9.179206848144531,18.0,1.9391426143432642e-05,-0.7684448957443237,0.0,,,,,,,
4.100152,1500.0,21.0394344329834,93.0,0.0,0.0,0.0,0.0,0.0,0.0,11.414747,504.0,39.8421343,0.0,0.0,0.01064650843716541,0.0,0.0,0.0,0.0,0.0005235987755982988,-2.917134437342545e-05,0.0,-105.212639,1500.0,0.0,0.0,-7.4539622969729805e-06,0.0,0.0,1500.0,0.0,1810.02,1.1531378030776978,0.0,0.0,0.0,0.0,11.454341,0.0,-0.853166937828064,0.0,-0.16838233172893524,0.0,-72.0,-9.159086227416992,18.0,-1.0469728804641916e-06,-0.764336109161377,0.0,,,,,,,
4.200141,1500.0,21.039201736450195,94.0,0.0,0.0,0.0,0.0,0.0,0.0,11.535749,503.0,39.842134,0.0,0.0,0.01064650843716541,0.0,0.0,0.0,0.0,0.0005235987755982988,-4.985117872391401e-06,0.0,-105.21263839999999,1500.0,0.0,0.0,-3.140278868711729e-06,0.0,0.0,1500.0,0.0,1810.05,1.159470796585083,0.0,0.0,0.0,0.0,11.55433,0.0,-1.0892634391784668,0.0,-0.1659783273935318,0.0,-74.0,-9.167503356933594,18.0,1.0004946523959413e-05,-0.7676844596862793,0.0,,,,,,,
4.300148999999999,1500.0,21.04257583618164,93.0,0.0,0.0,0.0,0.0,0.0,0.0,11.614747,504.0,39.842134,0.0,0.0,0.01064650843716541,0.0,0.0,0.0,0.0,0.0005235987755982988,-1.354723299504426e-05,0.0,-105.21263839999999,1500.0,0.0,0.0,-3.0458856035200146e-06,0.0,0.0,1500.0,0.0,1810.05,1.162719964981079,0.0,0.0,0.0,0.0,11.654338,0.0,-0.9336544275283813,0.0,-0.1643161177635193,0.0,-71.0,-9.165225982666016,18.0,5.310696386424304e-06,-0.7657055258750916,0.0,,,,,,,
4.400172999999999,1500.0,21.03838539123535,95.0,0.0,0.0,0.0,0.0,0.0,0.0,11.735225999999999,498.0,39.8421336,0.0,0.0,0.01064650843716541,0.0,0.0,0.0,0.0,0.0005235987755982988,-1.1608663356948707e-05,0.0,-105.212638,1500.0,0.0,0.0,-1.5831894509573104e-05,0.0,0.0,1500.0,0.0,1810.07,1.1555031538009644,0.0,0.0,0.0,0.0,11.754361999999999,0.0,-1.1321901082992554,0.0,-0.18170177936553955,0.0,-69.0,-9.169941902160645,18.0,1.0726457720653977e-05,-0.7698143720626831,0.0,,,,,,,
4.500145999999999,1500.0,21.04257583618164,95.0,0.0,0.0,0.0,0.0,0.0,0.0,11.814378,499.0,39.8421336,0.0,0.0,0.01064650843716541,0.0,0.0,0.0,0.0,0.0005235987755982988,-1.586061037237072e-05,0.0,-105.212638,1500.0,0.0,0.0,2.287038438934113e-07,0.0,0.0,1500.0,0.0,1810.07,1.1681832075119019,0.0,0.0,0.0,0.0,11.854334999999999,0.0,-0.9336544275283813,0.0,-0.1586364358663559,0.0,-71.0,-9.164382934570312,18.0,1.5872387878824152e-05,-0.7698143720626831,0.0,,,,,,,
4.600992,1500.0,21.043855667114258,94.0,0.0,0.0,0.0,0.0,0.0,0.0,11.937740999999999,499.0,39.842133499999996,0.0,0.0,0.136659280431156,0.0,0.0,0.0,0.0,0.020245819323134222,-1.4166640637128637e-05,0.0,-105.2126375,1500.0,0.0,0.0,1.6316684734777919e-06,6.283185307179586,0.0,1500.0,0.0,1810.06,1.144012689590454,0.0,0.0,0.0,0.0,11.955181,0.0,-1.0248734951019287,0.0,-0.1927991807460785,0.0,-73.0,-9.16329288482666,18.0,1.527349258322483e-05,-0.7661620378494263,0.0,,,,,,,
4.7007449999999995,1500.0,21.043622970581055,94.0,0.0,0.0,0.0,0.0,0.0,0.0,12.014952,499.0,39.842133499999996,0.05051126331090927,0.0019220677204430103,0.136659280431156,-0.00044438877375796437,0.0,0.0,0.0,0.020245819323134222,-4.381607273435059e-06,0.0,-105.2126375,1500.0,0.00036839870153926313,0.0,-6.421036477815752e-06,6.283010774254387,0.0,1500.0,0.0,1810.06,1.1667139530181885,0.0,0.0,0.0,0.0,12.054934,0.0,-1.0946292877197266,0.0,-0.16530781984329224,0.0,-73.0,-9.15609359741211,18.0,-2.0782021210156033e-07,-0.7657055258750916,0.0,,,,,,,
4.8042549999999995,1500.0,21.041526794433594,96.0,0.0,0.0,0.0,0.0,0.0,0.0,12.135909,498.0,39.8421333,0.1441580206155777,0.01329664047807455,0.13683381335635544,-6.368994945660233e-05,0.0,0.0,0.0,0.020071286397934793,-3.6980220247624306e-05,0.0,-105.2126371,1500.0,0.001927427132613957,0.0,5.733608732579782e-06,6.283010774254387,0.0,1500.0,0.0,1810.06,1.1704277992248535,0.0,0.0,0.0,0.0,12.158444,0.0,-1.0785318613052368,0.0,-0.16434884071350098,0.0,-72.0,-9.181425094604492,18.0,1.0496585542380463e-05,-0.7711843252182007,0.0,,,,,,,
4.900957,1500.0,21.04467010498047,97.0,0.0,0.0,0.0,0.0,0.0,0.0,12.215729,497.0,39.8421333,0.21390455961227417,0.16098396480083466,0.13683381335635544,-0.001181569998152554,0.0,0.0,0.0,0.020071286397934793,-1.4126434771916777e-05,0.0,-105.2126371,1500.0,0.0027134621050208807,0.0,-2.899124696688367e-06,0.6428047635095115,0.0,1500.0,0.0,1810.06,1.15070378780365,0.0,0.0,0.0,0.0,12.255146,0.0,-1.0356051921844482,0.0,-0.15824653208255768,0.0,-73.0,-9.16734504699707,18.0,2.6116793774052942e-05,-0.7684448957443237,0.0,,,,,,,
5.000995,1500.0,21.043855667114258,97.0,0.0,0.0,0.0,0.0,0.0,0.0,12.336081,501.0,39.8421331,0.30772244930267334,0.39258697628974915,0.13700834628155487,-0.003100590780377388,0.0,0.0,0.0,0.020071286397934793,-1.819434262930565e-05,0.0,-105.212637,1500.0,0.00317104859277606,0.0,-6.008398591378794e-06,0.6428047635095115,0.0,1500.0,0.0,1810.1000000000001,1.1650052070617676,0.0,0.0,0.0,0.0,12.355184,0.0,-1.0946292877197266,0.0,-0.17241404950618744,0.0,-70.0,-9.16522216796875,18.0,1.9933299127315864e-05,-0.7692059278488159,0.0,,,,,,,
5.100961,1500.0,21.041526794433594,95.0,0.0,0.0,0.0,0.0,0.0,0.0,12.416177999999999,500.0,39.8421331,0.3663861155509949,0.5395698547363281,0.13700834628155487,-0.004570312798023224,0.0,0.0,0.0,0.019896753472735357,-2.034483830132037e-05,0.0,-105.212637,1500.0,0.0034120548516511917,0.0,3.964903947814971e-06,0.6424556976591127,0.0,1500.0,0.0,1810.1000000000001,1.1373155117034912,0.0,0.0,0.0,0.0,12.45515,0.0,-0.8585327863693237,0.0,-0.16264984011650085,0.0,-72.0,-9.173460006713867,18.0,1.5343178279564592e-05,-0.764336109161377,0.0,,,,,,,
5.2009989999999995,1500.0,21.043622970581055,96.0,0.0,0.0,0.0,0.0,0.0,0.0,12.53674,497.0,39.842133,0.45046645402908325,0.7364683747291565,0.13718287920675432,-0.007535633631050587,0.0,0.0,0.0,0.019547687622336492,-1.5074419910096557e-05,0.0,-105.2126368,1500.0,0.0028056218288838863,0.0,-4.556254294216238e-06,0.6412339671827167,0.0,1500.0,0.0,1810.0900000000001,1.1620872020721436,0.0,0.0,0.0,0.0,12.555188,0.0,-0.879996120929718,0.0,-0.1583111584186554,0.0,-70.0,-9.162084579467773,18.0,-2.2054729461658476e-06,-0.7684448957443237,0.0,,,,,,,
5.300765999999999,1500.0,21.045717239379883,95.0,0.0,0.0,0.0,0.0,0.0,0.0,12.615941,498.0,39.842133,0.503971517086029,0.849450409412384,0.13735741213195374,-0.00830788817256689,0.0,0.0,0.0,0.019198621771937627,-3.9989633728759424e-05,0.0,-105.2126368,1500.0,0.0019705346785485744,0.0,3.819578275369771e-06,0.6398377037811213,0.0,1500.0,0.0,1810.0900000000001,1.1533277034759521,0.0,0.0,0.0,0.0,12.654955,0.0,-0.9712151885032654,0.0,-0.15688079595565796,0.0,-72.0,-9.186150550842285,18.0,8.674933536278342e-06,-0.7670754790306091,0.0,,,,,,,
5.400769,1500.0,21.035709381103516,92.0,0.0,0.0,0.0,0.0,0.0,0.0,12.735901,498.0,39.842132899999996,0.5819099545478821,1.0008516311645508,0.13753194505715316,-0.008982005529105663,0.0,0.0,0.0,0.01884955592153876,-3.958177826375174e-06,0.0,-105.2126366,1500.0,0.001166102709248662,0.0,-3.3589274683670315e-06,0.6375687757535285,0.0,1500.0,0.0,1810.13,1.1532492637634277,0.0,0.0,0.0,0.0,12.754958,0.0,-0.9604835510253906,0.0,-0.17584872245788574,0.0,-71.0,-9.157928466796875,18.0,4.021124702333474e-06,-0.7676844596862793,0.0,,,,,,,
5.50075,1500.0,21.037338256835938,89.0,0.0,0.0,0.0,0.0,0.0,0.0,12.815603,497.0,39.842132899999996,0.6317021250724792,1.0917117595672607,0.1377064779823526,-0.009144934825599194,0.0,0.0,0.0,0.018500490071139894,-2.9430049244759855e-05,0.0,-105.2126366,1500.0,-0.001048607169650495,0.0,1.051961786684859e-06,0.6361725123519332,0.0,1500.0,0.0,1810.13,1.1585466861724854,0.0,0.0,0.0,0.0,12.854939,0.0,-0.9873126745223999,0.0,-0.15485543012619019,0.0,-74.0,-9.174667358398438,18.0,2.0391592756767615e-05,-0.7711843252182007,0.0,,,,,,,
5.600956999999999,1500.0,21.041526794433594,92.0,0.0,0.0,0.0,0.0,0.0,0.0,12.935932,499.0,39.8421326,0.7050437331199646,1.2164533138275146,0.13788101090755203,-0.010445725172758102,0.0,0.0,0.0,0.01815142422074103,-2.6423553472460606e-05,0.0,-105.21263619999999,1500.0,-0.0037768101319670677,0.0,6.241698975942924e-06,0.6344271830999388,0.0,1500.0,0.0,1810.17,1.1585403680801392,0.0,0.0,0.0,0.0,12.955146,0.0,-0.8585327863693237,0.0,-0.17216621339321136,0.0,-71.0,-9.165178298950195,18.0,1.8737383915821616e-05,-0.7698143720626831,0.0,,,,,,,
5.70074,1500.0,21.043622970581055,92.0,0.0,0.0,0.0,0.0,0.0,0.0,13.015644,497.0,39.8421326,0.750979483127594,1.291686773300171,0.13805554383275148,-0.01057499647140503,0.0,0.0,0.0,0.01780235837034216,-8.456735241094314e-06,0.0,-105.21263619999999,1500.0,-0.005218425299972296,0.0,-9.79604080632473e-06,0.6335545184739417,0.0,1500.0,0.0,1810.17,1.153702974319458,0.0,0.0,0.0,0.0,13.054929,0.0,-0.8209719657897949,0.0,-0.1497766524553299,0.0,-72.0,-9.16830825805664,18.0,2.0855992037369643e-05,-0.7657055258750916,0.0,,,,,,,
5.800855,1500.0,21.041526794433594,93.0,0.0,0.0,0.0,0.0,0.0,0.0,13.13595,503.0,39.8421325,0.8165144324302673,1.3925418853759766,0.13805554383275148,-0.011588281951844692,0.0,0.0,0.0,0.01780235837034216,-3.902056428376221e-05,0.0,-105.21263599999999,1500.0,-0.007199529092758894,0.0,-3.341083423503637e-06,0.6335545184739417,0.0,1500.0,0.0,1810.2,1.1595779657363892,0.0,0.0,0.0,0.0,13.155044,0.0,-0.853166937828064,0.0,-0.16413986682891846,0.0,-71.0,-9.161788940429688,18.0,1.2221211538705856e-05,-0.7661620378494263,0.0,,,,,,,
5.900753999999999,1500.0,21.04676628112793,94.0,0.0,0.0,0.0,0.0,0.0,0.0,13.21566,496.0,39.8421325,0.8579839468002319,1.4535653591156006,0.13805554383275148,-0.012275993824005127,0.0,0.0,0.0,0.017627825445142728,-5.407296219718913e-06,0.0,-105.21263599999999,1500.0,-0.007807112764567137,0.0,-3.337561499023568e-06,0.6337290513991412,0.0,1500.0,0.0,1810.2,1.1530944108963013,0.0,0.0,0.0,0.0,13.254942999999999,0.0,-0.9658493995666504,0.0,-0.18206563591957092,0.0,-71.0,-9.177245140075684,18.0,1.2830345229029379e-05,-0.7698143720626831,0.0,,,,,,,
6.000873,1500.0,21.041526794433594,94.0,0.0,0.0,0.0,0.0,0.0,0.0,13.335941,502.0,39.842132299999996,0.9183157086372375,1.5411345958709717,0.13805554383275148,-0.01218605600297451,0.0,0.0,0.0,0.017453292519943295,-3.680282517586784e-05,0.0,-105.2126358,1500.0,-0.010574305430054665,0.0,1.0233062184622474e-05,0.6340781172495399,0.0,1500.0,0.0,1810.22,1.1512008905410767,0.0,0.0,0.0,0.0,13.355062,0.0,-0.8317036628723145,0.0,-0.16661624610424042,0.0,-74.0,-9.168105125427246,18.0,1.3558653915215872e-05,-0.7711843252182007,0.0,,,,,,,
6.100778,1500.0,21.041526794433594,95.0,0.0,0.0,0.0,0.0,0.0,0.0,13.415904,500.0,39.842132299999996,0.9565162658691406,1.5968337059020996,0.1382300767579509,-0.01265129167586565,0.0,0.0,0.0,0.017453292519943295,-2.947940850712046e-05,0.0,-105.2126358,1500.0,-0.011668238788843155,0.0,1.6882792124946829e-06,0.6342526501747394,0.0,1500.0,0.0,1810.22,1.1606688499450684,0.0,0.0,0.0,0.0,13.454967,0.0,-0.8907277584075928,0.0,-0.16335225105285645,0.0,-70.0,-9.168100357055664,18.0,1.997569530598529e-05,-0.7657055258750916,0.0,,,,,,,
6.200875,1500.0,21.038036346435547,95.0,0.0,0.0,0.0,0.0,0.0,0.0,13.536613,501.0,39.842132199999995,1.0102754831314087,1.6761943101882935,0.1382300767579509,-0.012323220260441303,0.0,0.0,0.0,0.017278759594743863,-1.317832772389706e-05,0.0,-105.21263569999999,1500.0,-0.014106467366218567,0.0,-8.60147269856181e-06,0.6344271830999388,0.0,1500.0,0.0,1810.23,1.1562577486038208,0.0,0.0,0.0,0.0,13.555064,0.0,-0.9819468855857849,0.0,-0.15521854162216187,0.0,-71.0,-9.173300743103027,18.0,1.8167469636921776e-05,-0.7692059278488159,0.0,,,,,,,
6.30078,1500.0,21.04257583618164,96.0,0.0,0.0,0.0,0.0,0.0,0.0,13.61592,500.0,39.842132199999995,1.045110821723938,1.728412389755249,0.1382300767579509,-0.01238576415926218,0.0,0.0,0.0,0.01710422666954443,-1.9530202209727123e-05,0.0,-105.21263569999999,1500.0,-0.01587740331888199,0.0,1.1866157765164051e-06,0.6346017160251383,0.0,1500.0,0.0,1810.23,1.1357892751693726,0.0,0.0,0.0,0.0,13.654969,0.0,-0.7941428422927856,0.0,-0.21410086750984192,0.0,-68.0,-9.174238204956055,18.0,7.935498037409092e-06,-0.764336109161377,0.0,,,,,,,
6.40086,1500.0,21.03838539123535,96.0,0.0,0.0,0.0,0.0,0.0,0.0,13.735949999999999,502.0,39.8421321,1.093591570854187,1.8046314716339111,0.1382300767579509,-0.0066877142526209354,0.0,0.0,0.0,0.0153588974175501,-0.00024569270265868166,0.0,-105.2126356,1500.0,-0.025428524240851402,0.0,8.772313490957026e-05,0.6349507818755371,0.0,1500.0,0.0,1810.19,1.2075039148330688,0.0,0.0,0.0,0.0,13.755049,0.0,-0.8209719657897949,0.0,0.2110222578048706,0.0,-70.0,-9.145809173583984,18.0,7.52278639551897e-05,-0.7711843252182007,0.0,,,,,,,
6.500864999999999,1500.0,21.04257583618164,95.0,0.0,0.0,0.0,0.0,0.0,0.0,13.815653,502.0,39.8421321,1.1263771057128906,1.8510801792144775,0.13840460968315035,-0.018912773579359055,0.0,0.0,0.0,0.016231562043547264,0.00028314243020920144,0.0,-105.2126356,1500.0,-0.010509401559829712,0.0,-0.00011556763493523773,0.6342526501747394,0.0,1500.0,0.0,1810.19,1.1319458484649658,0.0,0.0,0.0,0.0,13.855053999999999,0.0,-0.9551177024841309,0.0,-0.5364289879798889,0.0,-70.0,-9.091538429260254,18.0,-3.182225555642149e-05,-0.7670754790306091,0.0,,,,,,,
6.600894,1500.0,21.04269027709961,95.0,0.0,0.0,0.0,0.0,0.0,0.0,13.935948,502.0,39.842132,1.1665788888931274,1.9191374778747559,0.1387536755335492,0.005452295299619436,0.0,0.0,0.0,0.016057029118347832,2.1422431885831222e-05,0.0,-105.21263549999999,1500.0,-0.01154501736164093,0.0,0.00012072073136016565,0.6326818538479445,0.0,1500.0,0.0,1810.19,1.891203761100769,0.0,0.0,0.0,0.0,13.955083,0.0,-0.847801148891449,0.0,-0.662906289100647,0.0,-73.0,-9.283668518066406,18.0,-0.0002176534719820184,-0.7661620378494263,0.0,,,,,,,
6.700856999999999,1500.0,21.043622970581055,98.0,0.0,0.0,0.0,0.0,0.0,0.0,14.015654,503.0,39.842132,1.1630756855010986,1.9620712995529175,0.1350884841043611,0.07025755196809769,0.0,0.0,0.0,0.016755160819145562,-9.47294397026685e-05,0.0,-105.21263549999999,1500.0,0.022917110472917557,0.0,0.0010547082142274473,0.6339035843243405,0.0,1500.0,0.0,1810.19,2.7195186614990234,0.0,0.0,0.0,0.0,14.055045999999999,0.0,-0.7082895636558533,0.0,-0.13556747138500214,0.0,-72.0,-9.176241874694824,18.0,-0.0021198659547672282,-0.7629661560058594,0.0,,,,,,,
6.800989999999999,1500.0,21.04257583618164,105.0,0.0,0.0,0.0,0.0,0.0,0.0,14.136056,500.0,39.8421318,1.1823363304138184,2.0168004035949707,0.11972958668681101,0.2464914321899414,0.0,0.0,0.0,0.017976891295541596,-0.0005234407037238121,0.0,-105.21263549999999,1500.0,0.1486138105392456,0.0,0.00046848013934808024,0.6379178416039275,0.0,1500.0,0.0,1810.2,3.0000343322753906,0.0,0.0,0.0,0.0,14.155178999999999,0.0,-0.9980443716049194,0.0,-0.49690455198287964,0.0,-75.0,-8.938355445861816,18.0,-0.0024681391558392268,-0.7684448957443237,0.0,,,,,,,
6.900763999999999,1500.0,21.045717239379883,109.0,0.0,0.0,0.0,0.0,0.0,0.0,14.215651,497.0,39.8421318,1.213533639907837,2.0514190196990967,0.10925761117484503,0.3941285312175751,0.0,0.0,0.0,0.016057029118347832,0.0002642872691970148,0.0,-105.21263549999999,1500.0,0.24237525463104248,0.0,0.000999816602057185,0.6398377037811213,0.0,1500.0,0.0,1810.2,2.568315267562866,0.0,0.0,0.0,0.0,14.254952999999999,0.0,-1.0034102201461792,0.0,0.19718728959560394,0.0,-74.0,-8.868748664855957,18.0,-0.002393357904518992,-0.764336109161377,0.0,,,,,,,
7.000874999999999,1500.0,21.04269027709961,116.0,0.0,0.0,0.0,0.0,0.0,0.0,14.335942,492.0,39.842132,1.2443379163742065,2.1072449684143066,0.09459684545809266,0.5418623685836792,0.0,0.0,0.0,0.01815142422074103,-0.00047127736875280166,0.0,-105.2126353,1500.0,0.34706979990005493,0.0,0.0011800289939599966,0.6471680866394973,0.0,1500.0,0.0,1810.2,2.0051589012145996,0.0,0.0,0.0,0.0,14.355063999999999,0.0,-0.8907277584075928,0.0,-0.13780227303504944,0.0,-74.0,-8.82360553741455,18.0,-0.0017863699167789417,-0.7676844596862793,0.0,,,,,,,
7.100811,1500.0,21.04781150817871,118.0,0.0,0.0,0.0,0.0,0.0,0.0,14.415911999999999,492.0,39.842132,1.280662178993225,2.144411325454712,0.08621926504851989,0.5877673625946045,0.0,0.0,0.0,0.017976891295541596,0.0013068486470472723,0.0,-105.2126353,1500.0,0.41379237174987793,0.0,0.0009290585705106788,0.651007810993885,0.0,1500.0,0.0,1810.2,1.1274484395980835,0.0,0.0,0.0,0.0,14.455,0.0,-0.847801148891449,0.0,-0.43550413846969604,0.0,-73.0,-9.721356391906738,18.0,-0.0008427608379589651,-0.764336109161377,0.0,,,,,,,
7.200870999999999,1500.0,21.04257583618164,122.0,0.0,0.0,0.0,0.0,0.0,0.0,14.536646999999999,492.0,39.842132899999996,1.3375402688980103,2.1967740058898926,0.0804596785169386,0.6663762927055359,0.0,0.0,0.0,0.017278759594743863,-0.0005740355954581042,0.0,-105.2126349,1500.0,0.4471416175365448,0.0,-0.0005146403087075913,0.6538003377970759,0.0,1500.0,0.0,1810.18,1.3666112422943115,0.0,0.0,0.0,0.0,14.55506,0.0,-0.9497519135475159,0.0,0.2736547291278839,0.0,-77.0,-9.492351531982422,18.0,-0.0008716160193216623,-0.7657055258750916,0.0,,,,,,,
7.300746999999999,1500.0,21.04781150817871,122.0,0.0,0.0,0.0,0.0,0.0,0.0,14.61596,487.0,39.842132899999996,1.342850923538208,2.231492757797241,0.07993607974134029,0.6844860315322876,0.0,0.0,0.0,0.020245819323134222,-0.00025976069182150107,0.0,-105.2126349,1500.0,0.4909692108631134,0.0,-7.41899804692083e-05,0.6520550085450815,0.0,1500.0,0.0,1810.18,1.2155925035476685,0.0,0.0,0.0,0.0,14.654936,0.0,-1.083897590637207,0.0,-0.4921155571937561,0.0,-78.0,-9.07376480102539,18.0,0.0006676914808556252,-0.7657055258750916,0.0,,,,,,,
7.400753,1500.0,21.038036346435547,121.0,0.0,0.0,0.0,0.0,0.0,0.0,14.735885,486.0,39.8421343,1.386371374130249,2.2884843349456787,0.08744099552491591,0.7324624061584473,0.0,0.0,0.0,0.015184364492350668,0.000629391440298854,0.0,-105.2126344,1500.0,0.4984104335308075,0.0,-4.7984050283853334e-05,0.6504842122182867,0.0,1500.0,0.0,1810.19,1.2907392978668213,0.0,0.0,0.0,0.0,14.754942,0.0,-0.8907277584075928,0.0,0.4471553564071655,0.0,-78.0,-9.844474792480469,18.0,0.0013106164738336517,-0.7707278728485107,0.0,,,,,,,
7.500688,1500.0,21.041526794433594,119.0,0.0,0.0,0.0,0.0,0.0,0.0,14.815735,484.0,39.8421343,1.3791205883026123,2.3238847255706787,0.09058258817850572,0.7355935573577881,0.0,0.0,0.0,0.01832595714594046,-0.0015130116452303321,0.0,-105.2126344,1500.0,0.5101426839828491,0.0,0.0007698642802548957,0.6515314097694832,0.0,1500.0,0.0,1810.19,0.8877271413803101,0.0,0.0,0.0,0.0,14.854877,0.0,-0.8317036628723145,0.0,-0.8749959468841553,0.0,-75.0,-8.97153377532959,18.0,-0.0008593120980520499,-0.7711843252182007,0.0,,,,,,,
7.600726,1500.0,21.043622970581055,120.0,0.0,0.0,0.0,0.0,0.0,0.0,14.935863999999999,488.0,39.842135899999995,1.3921483755111694,2.370532274246216,0.08621926504851989,0.6962201595306396,0.0,0.0,0.0,0.01884955592153876,0.0010575567432928152,0.0,-105.21263379999999,1500.0,0.5065796375274658,0.0,0.0006418690261991208,0.6562437987498679,0.0,1500.0,0.0,1810.15,0.6647285223007202,0.0,0.0,0.0,0.0,14.954915,0.0,-0.8102403283119202,0.0,-0.44572997093200684,0.0,-80.0,-8.828831672668457,18.0,-0.0010581672677712293,-0.7657055258750916,0.0,,,,,,,
7.700693999999999,1500.0,21.04676628112793,124.0,0.0,0.0,0.0,0.0,0.0,0.0,15.015562,488.0,39.842135899999995,1.4091377258300781,2.3972079753875732,0.08325220532012953,0.6777347326278687,0.0,0.0,0.0,0.017627825445142728,0.0004321429447421978,0.0,-105.21263379999999,1500.0,0.4725456237792969,0.0,5.256058631177408e-05,0.6579891280018623,0.0,1500.0,0.0,1810.15,0.6226563453674316,0.0,0.0,0.0,0.0,15.054882999999998,0.0,-0.7243870496749878,0.0,0.16424840688705444,0.0,-76.0,-9.458121299743652,18.0,-0.0003971273178198347,-0.764336109161377,0.0,,,,,,,
7.800685999999999,1500.0,21.045019149780273,127.0,0.0,0.0,0.0,0.0,0.0,0.0,15.135855999999999,488.0,39.8421376,1.4384745359420776,2.4305925369262695,0.08429940287132612,0.6489529609680176,0.0,0.0,0.0,0.01832595714594046,-0.0013110224498552937,0.0,-105.21263309999999,1500.0,0.4306025207042694,0.0,-4.884603006178686e-05,0.65868725970266,0.0,1500.0,0.0,1810.1100000000001,0.9225597977638245,0.0,0.0,0.0,0.0,15.154874999999999,0.0,-0.9175569415092468,0.0,0.5026912093162537,0.0,-77.0,-9.419632911682129,18.0,-0.0001065065235353235,-0.7692059278488159,0.0,,,,,,,
7.900734,1500.0,21.04781150817871,129.0,0.0,0.0,0.0,0.0,0.0,0.0,15.215601,487.0,39.8421376,1.4483345746994019,2.451364517211914,0.08621926504851989,0.6097050905227661,0.0,0.0,0.0,0.016929693744344994,0.0007968715685184438,0.0,-105.21263309999999,1500.0,0.4337002635002136,0.0,0.0006920666869109558,0.6585127267774606,0.0,1500.0,0.0,1810.1100000000001,0.8055311441421509,0.0,0.0,0.0,0.0,15.254923,0.0,-0.8746302723884583,0.0,-0.2500637173652649,0.0,-78.0,-8.736188888549805,18.0,8.625746166792048e-05,-0.7670754790306091,0.0,,,,,,,
8.000744,1500.0,21.04257583618164,130.0,0.0,0.0,0.0,0.0,0.0,0.0,15.335873,488.0,39.8421394,1.4439181089401245,2.484163761138916,0.08988445647770797,0.5545771718025208,0.0,0.0,0.0,0.018675022996339326,-0.0005473781071619541,0.0,-105.2126323,1500.0,0.3694750964641571,0.0,0.00014783765720643226,0.6620033852814492,0.0,1500.0,0.0,1810.08,0.5433306694030762,0.0,0.0,0.0,0.0,15.354932999999999,0.0,-0.9712151885032654,0.0,-0.008912174962460995,0.0,-80.0,-9.465526580810547,18.0,0.00025837091964619726,-0.7684448957443237,0.0,,,,,,,
8.100648,1500.0,21.049907684326172,128.0,0.0,0.0,0.0,0.0,0.0,0.0,15.415851,482.0,39.8421394,1.4763565063476562,2.505650758743286,0.09442231253289324,0.48944491147994995,0.0,0.0,0.0,0.01710422666954443,-2.5058754527868296e-05,0.0,-105.2126323,1500.0,0.3690893054008484,0.0,-0.00044650359879409726,0.6609561877302526,0.0,1500.0,0.0,1810.08,0.9487531185150146,0.0,0.0,0.0,0.0,15.454837,0.0,-0.6599971055984497,0.0,-0.16942206025123596,0.0,-83.0,-9.328160285949707,18.0,-0.00030182873796574995,-0.7670754790306091,0.0,,,,,,,
8.200657999999999,1500.0,21.045019149780273,129.0,0.0,0.0,0.0,0.0,0.0,0.0,15.536437,485.0,39.8421413,1.477820873260498,2.536510944366455,0.0958185759344887,0.40733644366264343,0.0,0.0,0.0,0.01884955592153876,0.0026794430432085753,0.0,-105.2126316,1500.0,0.3368113338947296,0.0,-8.700910897704796e-05,0.657465529226264,0.0,1500.0,0.0,1810.06,0.4300658404827118,0.0,0.0,0.0,0.0,15.554846999999999,0.0,-0.6546312570571899,0.0,0.3339659571647644,0.0,-81.0,-10.157312393188477,18.0,0.0002582866230555408,-0.7631181478500366,0.0,,,,,,,
8.300694,1500.0,21.04781150817871,132.0,0.0,0.0,0.0,0.0,0.0,0.0,15.615815999999999,492.0,39.8421413,1.4869955778121948,2.5499277114868164,0.09878563566287905,0.37957412004470825,0.0,0.0,0.0,0.027052603405912107,-0.0021398299101556273,0.0,-105.2126316,1500.0,0.2672452926635742,0.0,-0.0002094448598381518,0.6567673975254662,0.0,1500.0,0.0,1810.06,1.008915901184082,0.0,0.0,0.0,0.0,15.654883,0.0,-0.6975578665733337,0.0,-1.2756234407424927,0.0,-77.0,-8.892635345458984,18.0,-0.00011977024097477513,-0.764336109161377,0.0,,,,,,,
8.400616999999999,1500.0,21.0394344329834,132.0,0.0,0.0,0.0,0.0,0.0,0.0,15.735819,494.0,39.8421434,1.508183479309082,2.5698118209838867,0.10210176124166828,0.32314416766166687,0.0,0.0,0.0,0.02356194490192345,0.0011934969428906367,0.0,-105.2126309,1500.0,0.23082084953784943,0.0,9.726449793293991e-05,0.6538003377970759,0.0,1500.0,0.0,1810.06,1.182483196258545,0.0,0.0,0.0,0.0,15.754805999999999,0.0,-0.8263378143310547,0.0,-0.10266964137554169,0.0,-79.0,-8.062278747558594,18.0,0.0007833627229001656,-0.7725538015365601,0.0,,,,,,,
8.500682,1500.0,21.043622970581055,129.0,0.0,0.0,0.0,0.0,0.0,0.0,15.815591999999999,497.0,39.8421434,1.528559684753418,2.5841658115386963,0.10663961729685355,0.30719152092933655,0.0,0.0,0.0,0.024783675378319478,-0.001442712514830647,0.0,-105.2126309,1500.0,0.195841982960701,0.0,-0.00025884641678589504,0.6531022060962781,0.0,1500.0,0.0,1810.06,1.0544397830963135,0.0,0.0,0.0,0.0,15.854871,0.0,-0.7297528982162476,0.0,-1.1199299097061157,0.0,-78.0,-8.789377212524414,18.0,0.0010341754762898292,-0.7657055258750916,0.0,,,,,,,
8.600700999999999,1500.0,21.04269027709961,125.0,0.0,0.0,0.0,0.0,0.0,0.0,15.935842,502.0,39.8421453,1.5026277303695679,2.605384111404419,0.11344640137963143,0.24651047587394714,0.0,0.0,0.0,0.017976891295541596,0.0023469856120379873,0.0,-105.21262999999999,1500.0,0.17961415648460388,0.0,0.00031998608705412614,0.649786080517489,0.0,1500.0,0.0,1810.0,0.7117408514022827,0.0,0.0,0.0,0.0,15.954889999999999,0.0,-0.9282885789871216,0.0,0.1898842453956604,0.0,-78.0,-9.915878295898438,18.0,-0.00022390734924301357,-0.7646405696868896,0.0,,,,,,,
8.700677,1500.0,21.048858642578125,125.0,0.0,0.0,0.0,0.0,0.0,0.0,16.015621,498.0,39.8421453,1.4761061668395996,2.617133140563965,0.11239920382843482,0.19268693029880524,0.0,0.0,0.0,0.02303834612632515,-0.0006817431666091833,0.0,-105.21262999999999,1500.0,0.11430822312831879,0.0,3.7268325708690646e-05,0.6504842122182867,0.0,1500.0,0.0,1810.0,0.8940318822860718,0.0,0.0,0.0,0.0,16.054866,0.0,-0.847801148891449,0.0,-0.03147755563259125,0.0,-74.0,-7.476815700531006,18.0,-0.0017169097861523613,-0.764336109161377,0.0,,,,,,,
8.800734,1500.0,21.043622970581055,129.0,0.0,0.0,0.0,0.0,0.0,0.0,16.13588,500.0,39.842147499999996,1.5246268510818481,2.642486572265625,0.10245082709206714,0.1311182975769043,0.0,0.0,0.0,0.02076941809873252,0.0006236798180059072,0.0,-105.21262929999999,1500.0,0.07075363397598267,0.0,-0.00011344739525366518,0.6478662183402951,0.0,1500.0,0.0,1809.96,0.6880371570587158,0.0,0.0,0.0,0.0,16.154923,0.0,-0.7136553525924683,0.0,-0.05687396600842476,0.0,-74.0,-9.44698429107666,18.0,-0.0011172769604033785,-0.764336109161377,0.0,,,,,,,
8.900709999999998,1500.0,21.045717239379883,131.0,0.0,0.0,0.0,0.0,0.0,0.0,16.215569,497.0,39.842147499999996,1.5444973707199097,2.658079147338867,0.10105456369047168,0.10838983207941055,0.0,0.0,0.0,0.021467549799530253,-0.0004001010726727877,0.0,-105.21262929999999,1500.0,0.02161487564444542,0.0,1.2820193187108466e-05,0.646993553714298,0.0,1500.0,0.0,1809.96,0.19757068157196045,0.0,0.0,0.0,0.0,16.254898999999998,0.0,-0.9229227304458618,0.0,0.3228193521499634,0.0,-72.0,-9.515745162963867,18.0,0.00016856928698424952,-0.764336109161377,0.0,,,,,,,
9.000728999999998,1500.0,21.04269027709961,126.0,0.0,0.0,0.0,0.0,0.0,0.0,16.335853999999998,501.0,39.8421497,1.5689740180969238,2.6844990253448486,0.10978120995044333,0.041603513062000275,0.0,0.0,0.0,0.01832595714594046,-0.0019608399976184326,0.0,-105.2126287,1500.0,-0.07094217836856842,0.0,0.00036301658700272493,0.6475171524898963,0.0,1500.0,0.0,1809.94,0.5367545485496521,0.0,0.0,0.0,0.0,16.354917999999998,0.0,-0.8102403283119202,0.0,1.2189905643463135,0.0,-71.0,-9.191415786743164,18.0,0.0014815647581984054,-0.7661620378494263,0.0,,,,,,,
9.100698,1500.0,21.045717239379883,124.0,0.0,0.0,0.0,0.0,0.0,0.0,16.415869,500.0,39.8421497,1.5959844589233398,2.704373598098755,0.11903145498601328,-0.04171203449368477,0.0,0.0,0.0,0.02076941809873252,-0.000341012706135305,0.0,-105.2126287,1500.0,-0.07042321562767029,0.0,0.0010859662872992769,0.6499606134426884,0.0,1500.0,0.0,1809.94,1.0670949220657349,0.0,0.0,0.0,0.0,16.454887,0.0,-0.7404845356941223,0.0,-0.6687353849411011,0.0,-73.0,-9.144804954528809,18.0,0.000433098717887319,-0.764336109161377,0.0,,,,,,,
9.200726999999999,1500.0,21.043622970581055,124.0,0.0,0.0,0.0,0.0,0.0,0.0,16.536616,496.0,39.842152,1.5400623083114624,2.732269048690796,0.11780972450961724,-0.11675190180540085,0.0,0.0,0.0,0.02129301687433082,0.000489151464391741,0.0,-105.212628,1500.0,-0.13211806118488312,0.0,0.0012684898947115868,0.6541494036474748,0.0,1500.0,0.0,1809.91,0.6844578981399536,0.0,0.0,0.0,0.0,16.554916,0.0,-0.8263378143310547,0.0,-0.15766432881355286,0.0,-72.0,-8.083024978637695,18.0,-0.0012112558581128018,-0.7684448957443237,0.0,,,,,,,
9.300683000000001,1500.0,21.04676628112793,128.0,0.0,0.0,0.0,0.0,0.0,0.0,16.615828999999998,489.0,39.842152,1.5664328336715698,2.7485148906707764,0.11135200627723822,-0.15977665781974792,0.0,0.0,0.0,0.020594885173533087,0.0007253086719540155,0.0,-105.212628,1500.0,-0.14554950594902039,0.0,0.00029045884112581364,0.6562437987498679,0.0,1500.0,0.0,1809.91,0.41600510478019714,0.0,0.0,0.0,0.0,16.654872,0.0,-0.5795096158981323,0.0,-0.5210800170898438,0.0,-78.0,-9.371932029724121,18.0,-0.0019233141333092096,-0.7657055258750916,0.0,,,,,,,
9.400709999999998,1500.0,21.041526794433594,131.0,0.0,0.0,0.0,0.0,0.0,0.0,16.73585,490.0,39.8421543,1.5775765180587769,2.769240140914917,0.10349802464326374,-0.26841387152671814,0.0,0.0,0.0,0.027925268031909273,0.0011673113594575675,0.0,-105.21262739999999,1500.0,-0.16671603918075562,0.0,0.0005157880817232936,0.6551966011986713,0.0,1500.0,0.0,1809.9,0.35266852378845215,0.0,0.0,0.0,0.0,16.754898999999998,0.0,-0.5902413129806519,0.0,-0.9116256237030029,0.0,-75.0,-8.406575202941895,18.0,-0.0004520864192774873,-0.7707278728485107,0.0,,,,,,,
9.500696,1500.0,21.041526794433594,131.0,0.0,0.0,0.0,0.0,0.0,0.0,16.815459999999998,493.0,39.8421543,1.6190094947814941,2.7804300785064697,0.10402162341886204,-0.2817842662334442,0.0,0.0,0.0,0.028972465583105872,-0.0006499723570052162,0.0,-105.21262739999999,1500.0,-0.22825220227241516,0.0,-0.00013376623831344925,0.6541494036474748,0.0,1500.0,0.0,1809.9,0.19488026201725006,0.0,0.0,0.0,0.0,16.854885,0.0,-0.8048744797706604,0.0,-0.47329992055892944,0.0,-76.0,-9.195716857910156,18.0,0.0006723239247361419,-0.7657055258750916,0.0,,,,,,,
9.600716,1500.0,21.040481567382812,133.0,0.0,0.0,0.0,0.0,0.0,0.0,16.935831999999998,494.0,39.8421565,1.6288195848464966,2.798336982727051,0.10995574287564276,-0.3221893310546875,0.0,0.0,0.0,0.02652900463031381,-0.001166909804699454,0.0,-105.2126265,1500.0,-0.2818067967891693,0.0,0.00038178725636851124,0.6522295414702809,0.0,1500.0,0.0,1809.89,0.4685876965522766,0.0,0.0,0.0,0.0,16.954905,0.0,-0.7243870496749878,0.0,-0.8704657554626465,0.0,-80.0,-9.637455940246582,18.0,-0.0007115807137167537,-0.7629661560058594,0.0,,,,,,,
9.70058,1500.0,21.0394344329834,136.0,0.0,0.0,0.0,0.0,0.0,0.0,17.015428,499.0,39.8421565,1.5346962213516235,2.8074331283569336,0.1069886831472524,-0.43002793192863464,0.0,0.0,0.0,0.02757620218151041,0.0012962324130924839,0.0,-105.2126265,1500.0,-0.2925466299057007,0.0,0.0019852431616637226,0.6536258048718765,0.0,1500.0,0.0,1809.89,0.5698559880256653,0.0,0.0,0.0,0.0,17.054769,0.0,-0.7136553525924683,0.0,-1.2724089622497559,0.0,-77.0,-7.4869384765625,18.0,-0.0008729024769712793,-0.764336109161377,0.0,,,,,,,
9.800617999999998,1500.0,21.04269027709961,137.0,0.0,0.0,0.0,0.0,0.0,0.0,17.135792,493.0,39.8421587,1.5654429197311401,2.8193774223327637,0.09686577348568529,-0.4470699429512024,0.0,0.0,0.0,0.028448866807507574,0.0005270753399463967,0.0,-105.2126255,1500.0,-0.33576831221580505,0.0,0.0005467912494471334,0.6604325889546544,0.0,1500.0,0.0,1809.88,-0.5257366895675659,0.0,0.0,0.0,0.0,17.154806999999998,0.0,-0.5634121298789978,0.0,0.9077465534210205,0.0,-78.0,-10.119405746459961,18.0,-0.001006744526950525,-0.7676844596862793,0.0,,,,,,,
9.900608,1500.0,21.04257583618164,139.0,0.0,0.0,0.0,0.0,0.0,0.0,17.215426,492.0,39.8421587,1.6103848218917847,2.822958469390869,0.09546951008408983,-0.45058518648147583,0.0,0.0,0.0,0.026878070480712675,-0.0009929130591318327,0.0,-105.2126255,1500.0,-0.34823375940322876,0.0,0.00013278891150862683,0.6623524511318482,0.0,1500.0,0.0,1809.88,0.21890833973884583,0.0,0.0,0.0,0.0,17.254797,0.0,-0.8102403283119202,0.0,0.06162510812282562,0.0,-82.0,-9.30810260772705,18.0,-0.0002556924304255764,-0.764336109161377,0.0,,,,,,,
10.000715999999999,1500.0,21.043622970581055,138.0,0.0,0.0,0.0,0.0,0.0,0.0,17.335848,495.0,39.842161,1.5917351245880127,2.832911968231201,0.09948376736367678,-0.5039730668067932,0.0,0.0,0.0,0.025656340004316644,0.00040066198797366937,0.0,-105.2126246,1500.0,-0.33436888456344604,0.0,0.0003418314201110442,0.6625269840570475,0.0,1500.0,0.0,1809.81,0.34664443135261536,0.0,0.0,0.0,0.0,17.354905,0.0,-0.8746302723884583,0.0,0.46934035420417786,0.0,-82.0,-9.963064193725586,18.0,0.0021078536418347497,-0.7670754790306091,0.0,,,,,,,
10.100702,1500.0,21.04676628112793,129.0,0.0,0.0,0.0,0.0,0.0,0.0,17.415862999999998,500.0,39.842161,1.5973821878433228,2.8391973972320557,0.1096066770252439,-0.5116247534751892,0.0,0.0,0.0,0.027052603405912107,-0.0026067858189022736,0.0,-105.2126246,1500.0,-0.3500370979309082,0.0,-0.001006487898610131,0.6632251157578453,0.0,1500.0,0.0,1809.81,0.9748774766921997,0.0,0.0,0.0,0.0,17.454891,0.0,-0.8960936069488525,0.0,-0.3694743812084198,0.0,-84.0,-8.923909187316895,18.0,0.002734358517198175,-0.7657055258750916,0.0,,,,,,,
10.200688999999999,1500.0,21.043855667114258,124.0,0.0,0.0,0.0,0.0,0.0,0.0,17.536604,498.0,39.842163299999996,1.565703272819519,2.8512816429138184,0.11850785621041497,-0.5242279171943665,0.0,0.0,0.0,0.022514747350726852,0.0017431459540416824,0.0,-105.2126237,1500.0,-0.31768882274627686,0.0,0.0007416284658976695,0.6567673975254662,0.0,1500.0,0.0,1809.75,0.575461208820343,0.0,0.0,0.0,0.0,17.554878,0.0,-0.7565820217132568,0.0,-1.5249698162078857,0.0,-83.0,-8.883525848388672,18.0,0.00031085695809084866,-0.7692059278488159,0.0,,,,,,,
10.300658999999998,1500.0,21.04676628112793,121.0,0.0,0.0,0.0,0.0,0.0,0.0,17.615828999999998,502.0,39.842163299999996,1.5023294687271118,2.8557353019714355,0.1153662635568252,-0.5084412097930908,0.0,0.0,0.0,0.019896753472735357,0.0003213030384183731,0.0,-105.2126237,1500.0,-0.3529590964317322,0.0,-0.0011028402346113571,0.6564183316750674,0.0,1500.0,0.0,1809.75,0.932959794998169,0.0,0.0,0.0,0.0,17.654847999999998,0.0,-0.8370694518089294,0.0,1.1627099514007568,0.0,-83.0,-9.57785415649414,18.0,0.00014250346777793638,-0.764336109161377,0.0,,,,,,,
10.40077,1500.0,21.040481567382812,120.0,0.0,0.0,0.0,0.0,0.0,0.0,17.735872999999998,497.0,39.842165699999995,1.5380240678787231,2.8554470539093018,0.10559241974565693,-0.4809407889842987,0.0,0.0,0.0,0.020071286397934793,0.0008601753497559802,0.0,-105.2126227,1500.0,-0.29829496145248413,0.0,-0.0014379119328988864,0.6473426195646969,0.0,1500.0,0.0,1809.7,0.3131159842014313,0.0,0.0,0.0,0.0,17.754959,0.0,-0.6438995599746704,0.0,-0.14206953346729279,0.0,-82.0,-10.420180320739746,18.0,-0.001313073005872357,-0.7725538015365601,0.0,,,,,,,
10.500668,1500.0,21.045717239379883,123.0,0.0,0.0,0.0,0.0,0.0,0.0,17.815561,494.0,39.842165699999995,1.4901474714279175,2.8526787757873535,0.10000736613927509,-0.4548183083534241,0.0,0.0,0.0,0.020071286397934793,-0.0017548782969630799,0.0,-105.2126227,1500.0,-0.30925124883651733,0.0,-0.0023893397561946046,0.6382669074543263,0.0,1500.0,0.0,1809.7,0.5529277324676514,0.0,0.0,0.0,0.0,17.854857,0.0,-0.6546312570571899,0.0,-0.3194088637828827,0.0,-79.0,-9.02926254272461,18.0,1.5862160659168608e-05,-0.7657055258750916,0.0,,,,,,,
10.600662999999999,1500.0,21.04618263244629,126.0,0.0,0.0,0.0,0.0,0.0,0.0,17.935854,495.0,39.842168,1.4798368215560913,2.839409351348877,0.09704030641088474,-0.397197961807251,0.0,0.0,0.0,0.019547687622336492,0.0019585937356716536,0.0,-105.21262159999999,1500.0,-0.2648783028125763,0.0,-0.001048525402275814,0.6243042734383717,0.0,1500.0,0.0,1809.63,0.6978613138198853,0.0,0.0,0.0,0.0,17.954852,0.0,-0.45072972774505615,0.0,-0.4015454351902008,0.0,-79.0,-10.455342292785645,18.0,-0.00017561138450635384,-0.7631181478500366,0.0,,,,,,,
10.700681999999999,1500.0,21.04676628112793,130.0,0.0,0.0,0.0,0.0,0.0,0.0,18.015456999999998,495.0,39.842168,1.4335123300552368,2.820930242538452,0.09058258817850572,-0.3162863850593567,0.0,0.0,0.0,0.019024088846738195,-0.002074030975842093,0.0,-105.21262159999999,1500.0,-0.30738914012908936,0.0,-0.0010312335805417135,0.619591884457987,0.0,1500.0,0.0,1809.63,0.6439883708953857,0.0,0.0,0.0,0.0,18.054871,0.0,-0.8048744797706604,0.0,0.3284361660480499,0.0,-75.0,-9.276634216308594,18.0,-0.0015590982460651013,-0.7670754790306091,0.0,,,,,,,
10.800693999999998,1500.0,21.04676628112793,132.0,0.0,0.0,0.0,0.0,0.0,0.0,18.135873999999998,497.0,39.8421705,1.3801556825637817,2.785778284072876,0.07539822368615504,-0.2900084853172302,0.0,0.0,0.0,0.01884955592153876,-0.00030566044550825715,0.0,-105.2126207,1500.0,-0.2604864835739136,0.0,0.00043066660032589204,0.6161012259539984,0.0,1500.0,0.0,1809.6100000000001,0.6047266721725464,0.0,0.0,0.0,0.0,18.154882999999998,0.0,-0.6117045879364014,0.0,-1.050398588180542,0.0,-72.0,-8.556169509887695,18.0,-0.0015805979403438247,-0.7670754790306091,0.0,,,,,,,
10.900677,1500.0,21.045717239379883,137.0,0.0,0.0,0.0,0.0,0.0,0.0,18.21547,492.0,39.8421705,1.366752028465271,2.7613534927368164,0.06387905062299247,-0.23726804554462433,0.0,0.0,0.0,0.011519173063162575,0.0016020975045853852,0.0,-105.2126207,1500.0,-0.2665131688117981,0.0,0.00029833002308737465,0.6173229564303944,0.0,1500.0,0.0,1809.6100000000001,0.2883979082107544,0.0,0.0,0.0,0.0,18.254866,0.0,-0.6707287430763245,0.0,0.6912282109260559,0.0,-74.0,-9.03818130493164,18.0,0.00040505483838209277,-0.764336109161377,0.0,,,,,,,
11.000697999999998,1500.0,21.045019149780273,139.0,0.0,0.0,0.0,0.0,0.0,0.0,18.335836999999998,495.0,39.842172999999995,1.3426049947738647,2.7187929153442383,0.06318091892219473,-0.22079573571681976,0.0,0.0,0.0,0.013962634015954637,-0.0009434462722923994,0.0,-105.21261969999999,1500.0,-0.2223016768693924,0.0,-7.599519598114065e-06,0.6202900161587847,0.0,1500.0,0.0,1809.5900000000001,0.22134460508823395,0.0,0.0,0.0,0.0,18.354886999999998,0.0,-0.552680492401123,0.0,-0.2651171386241913,0.0,-76.0,-9.002153396606445,18.0,0.0014352871327717746,-0.7615966796875,0.0,,,,,,,
11.100671,1500.0,21.04257583618164,137.0,0.0,0.0,0.0,0.0,0.0,0.0,18.415847,496.0,39.842172999999995,1.326378583908081,2.6881330013275146,0.06719517620178168,-0.2119077444076538,0.0,0.0,0.0,0.014486232791552936,-0.0006364572045845518,0.0,-105.21261969999999,1500.0,-0.20563964545726776,0.0,-0.0005315642227994013,0.6197664173831864,0.0,1500.0,0.0,1809.5900000000001,0.8806154727935791,0.0,0.0,0.0,0.0,18.45486,0.0,-0.7619478702545166,0.0,-0.9611630439758301,0.0,-78.0,-8.666765213012695,18.0,0.0024800942524201607,-0.7725538015365601,0.0,,,,,,,
11.200705000000001,1500.0,21.043622970581055,132.0,0.0,0.0,0.0,0.0,0.0,0.0,18.536565,501.0,39.842175499999996,1.1799051761627197,2.638070821762085,0.06789330790257943,-0.1721174567937851,0.0,0.0,0.0,0.008552113334772215,0.0013474739471271027,0.0,-105.2126186,1500.0,-0.19129404425621033,0.0,-0.0008842899613374574,0.613134166225608,0.0,1500.0,0.0,1809.55,0.22453956305980682,0.0,0.0,0.0,0.0,18.554894,0.0,-0.7029237151145935,0.0,1.640373706817627,0.0,-77.0,-8.885579109191895,18.0,7.176399090906891e-05,-0.7684448957443237,0.0,,,,,,,
11.300676000000001,1500.0,21.04676628112793,131.0,0.0,0.0,0.0,0.0,0.0,0.0,18.615806,502.0,39.842175499999996,1.207471251487732,2.600512742996216,0.06335545184739416,-0.14497365057468414,0.0,0.0,0.0,0.015184364492350668,-0.0015812160069776696,0.0,-105.2126186,1500.0,-0.1613190621137619,0.0,-0.0012854841914176549,0.610341639422417,0.0,1500.0,0.0,1809.55,0.24363404512405396,0.0,0.0,0.0,0.0,18.654865,0.0,-0.5151196718215942,0.0,-1.4757261276245117,0.0,-74.0,-9.423727035522461,18.0,-0.0020057753794526906,-0.7684448957443237,0.0,,,,,,,
11.400664999999998,1500.0,21.04618263244629,133.0,0.0,0.0,0.0,0.0,0.0,0.0,18.735706999999998,504.0,39.8421781,1.1592532396316528,2.541177749633789,0.050265482457436686,-0.09764858335256577,0.0,0.0,0.0,0.009948376736367679,0.0002563019146066897,0.0,-105.2126176,1500.0,-0.15265007317066193,0.0,-0.0010280297899481184,0.6017895260876449,0.0,1500.0,0.0,1809.52,0.18604621291160583,0.0,0.0,0.0,0.0,18.754853999999998,0.0,-0.6278020739555359,0.0,-1.0346688032150269,0.0,-73.0,-8.682801246643066,18.0,-0.0006591649441038431,-0.7707278728485107,0.0,,,,,,,
11.500662999999998,1500.0,21.04467010498047,127.0,0.0,0.0,0.0,0.0,0.0,0.0,18.815424999999998,506.0,39.8421781,1.101526141166687,2.497271776199341,0.0481710873550435,-0.08957932144403458,0.0,0.0,0.0,0.013089969389957472,9.884210066229896e-05,0.0,-105.2126176,1500.0,-0.14904797077178955,0.0,-0.0004238543759979766,0.597426202957659,0.0,1500.0,0.0,1809.52,0.32976460456848145,0.0,0.0,0.0,0.0,18.854851999999998,0.0,-1.019507646560669,0.0,-0.9727265238761902,0.0,-72.0,-8.207503318786621,18.0,0.0014921376897780475,-0.7670754790306091,0.0,,,,,,,
11.600706999999998,1500.0,21.04781150817871,123.0,0.0,0.0,0.0,0.0,0.0,0.0,18.935855,506.0,39.8421808,1.0582882165908813,2.4376752376556396,0.05375614096142535,-0.010271072387695312,0.0,0.0,0.0,0.010821041362364843,7.025482836385159e-05,0.0,-105.2126167,1500.0,-0.14714135229587555,0.0,0.00021580447356698732,0.5955063407804652,0.0,1500.0,0.0,1809.52,1.0293474197387695,0.0,0.0,0.0,0.0,18.954895999999998,0.0,-0.6492654085159302,0.0,-0.26981067657470703,0.0,-72.0,-8.290904998779297,18.0,6.788519975454663e-06,-0.7670754790306091,0.0,,,,,,,
11.700673999999998,1500.0,21.049907684326172,126.0,0.0,0.0,0.0,0.0,0.0,0.0,19.015563,499.0,39.8421808,0.9943199753761292,2.398282766342163,0.0486946861306418,0.004657973535358906,0.0,0.0,0.0,0.009948376736367679,0.00039970400419678395,0.0,-105.2126167,1500.0,-0.14910100400447845,0.0,0.001014767754864458,0.5976007358828584,0.0,1500.0,0.0,1809.52,0.1826195865869522,0.0,0.0,0.0,0.0,19.054862999999997,0.0,-0.5795096158981323,0.0,0.5468944907188416,0.0,-75.0,-9.118454933166504,18.0,-0.0008417022704368074,-0.764336109161377,0.0,,,,,,,
11.800703999999998,1500.0,21.047346115112305,128.0,0.0,0.0,0.0,0.0,0.0,0.0,19.135831,495.0,39.842183299999995,0.9782691597938538,2.3299503326416016,0.03787364476827695,0.03758450597524643,0.0,0.0,0.0,0.01117010721276371,-0.0012858607790405489,0.0,-105.2126157,1500.0,-0.12743419408798218,0.0,0.0003007790454799398,0.6059783162924312,0.0,1500.0,0.0,1809.48,0.07295334339141846,0.0,0.0,0.0,0.0,19.154892999999998,0.0,-0.5634121298789978,0.0,0.5269777774810791,0.0,-75.0,-9.906646728515625,18.0,-0.0015259641268484197,-0.7661620378494263,0.0,,,,,,,
11.900698999999998,1500.0,21.050954818725586,129.0,0.0,0.0,0.0,0.0,0.0,0.0,19.215465,495.0,39.842183299999995,0.9241675138473511,2.2805607318878174,0.03420845333908886,0.012471728958189487,0.0,0.0,0.0,0.012391837689159739,-0.0007634307566537665,0.0,-105.2126157,1500.0,-0.09760092198848724,0.0,0.0002883911202032868,0.6094689747964199,0.0,1500.0,0.0,1809.48,0.11188391596078873,0.0,0.0,0.0,0.0,19.254887999999998,0.0,-0.6814603805541992,0.0,0.08048980683088303,0.0,-74.0,-8.943840980529785,18.0,0.0011816263704653937,-0.764336109161377,0.0,,,,,,,
12.00071,1500.0,21.049907684326172,126.0,0.0,0.0,0.0,0.0,0.0,0.0,19.335865,494.0,39.8421859,0.8953511714935303,2.2064948081970215,0.04241150082346221,0.000631073722615838,0.0,0.0,0.0,0.010995574287564275,-0.00047980380797671174,0.0,-105.21261489999999,1500.0,-0.08877253532409668,0.0,0.0004999007588731616,0.6152285613280012,0.0,1500.0,0.0,1809.45,0.0758453905582428,0.0,0.0,0.0,0.0,19.354899,0.0,-0.5956071019172668,0.0,-0.5671178102493286,0.0,-75.0,-8.320464134216309,18.0,0.0022756271989117496,-0.764336109161377,0.0,,,,,,,
12.100685,1500.0,21.052001953125,121.0,0.0,0.0,0.0,0.0,0.0,0.0,19.415947,494.0,39.8421859,0.842193067073822,2.158543825149536,0.05009094953223726,0.015166343189775944,0.0,0.0,0.0,0.007155849933176752,-3.929704767342104e-05,0.0,-105.21261489999999,1500.0,-0.09192882478237152,0.0,0.0005965190858904892,0.6185446869067903,0.0,1500.0,0.0,1809.45,0.3342042565345764,0.0,0.0,0.0,0.0,19.454874,0.0,-0.7029237151145935,0.0,-0.582137405872345,0.0,-77.0,-9.798079490661621,18.0,1.2628660637580412e-06,-0.7670754790306091,0.0,,,,,,,
12.200688999999999,1500.0,21.04618263244629,121.0,0.0,0.0,0.0,0.0,0.0,0.0,19.536571,495.0,39.8421884,0.7748448848724365,2.079515218734741,0.04345869837465881,0.03561967611312866,0.0,0.0,0.0,0.006283185307179586,-0.00041440457539172374,0.0,-105.21261419999999,1500.0,-0.0538463369011879,0.0,0.00026993741642134173,0.6263986685407649,0.0,1500.0,0.0,1809.44,0.7132683992385864,0.0,0.0,0.0,0.0,19.554878,0.0,-0.6492654085159302,0.0,0.11979909986257553,0.0,-79.0,-9.779009819030762,18.0,-0.002042904890490304,-0.7631181478500366,0.0,,,,,,,
12.300665999999998,1500.0,21.048858642578125,129.0,0.0,0.0,0.0,0.0,0.0,0.0,19.615899,489.0,39.8421884,0.7016342282295227,2.0255086421966553,0.0328121899374934,0.02492472529411316,0.0,0.0,0.0,0.012217304763960308,0.0007457572108288493,0.0,-105.21261419999999,1500.0,0.012085177935659885,0.0,0.0010442703262411668,0.6302383928951524,0.0,1500.0,0.0,1809.44,-0.43494701385498047,0.0,0.0,0.0,0.0,19.654854999999998,0.0,-0.5956071019172668,0.0,1.4537416696548462,0.0,-80.0,-9.601949691772461,18.0,-0.0025659637725954274,-0.764336109161377,0.0,,,,,,,
12.400712,1500.0,21.045717239379883,138.0,0.0,0.0,0.0,0.0,0.0,0.0,19.735858,484.0,39.8421908,0.6555317044258118,1.9431495666503906,0.02234021442552742,0.05521262064576149,0.0,0.0,0.0,0.015707963267948967,-0.003294616350185741,0.0,-105.2126134,1500.0,-0.052986130118370056,0.0,0.00016217643250572398,0.6415830330331155,0.0,1500.0,0.0,1809.45,0.38239404559135437,0.0,0.0,0.0,0.0,19.754901,0.0,-0.5634121298789978,0.0,1.0587469339370728,0.0,-77.0,-8.462223052978516,18.0,0.0007777742458002025,-0.7684448957443237,0.0,,,,,,,
12.500694999999999,1500.0,21.04467010498047,138.0,0.0,0.0,0.0,0.0,0.0,0.0,19.815475,488.0,39.8421908,0.6260719299316406,1.8890055418014526,0.02757620218151041,0.037269704043865204,0.0,0.0,0.0,0.010471975511965976,0.0011812123321396704,0.0,-105.2126134,1500.0,-0.012869296595454216,0.0,0.0025739704207711285,0.6464699549386996,0.0,1500.0,0.0,1809.45,0.7446378469467163,0.0,0.0,0.0,0.0,19.854884,0.0,-0.6760945916175842,0.0,-0.6649007797241211,0.0,-81.0,-8.927030563354492,18.0,0.0016675110087489688,-0.7670754790306091,0.0,,,,,,,
12.600678,1500.0,21.045019149780273,138.0,0.0,0.0,0.0,0.0,0.0,0.0,19.935871,490.0,39.8421932,0.5543011426925659,1.808388352394104,0.028972465583105872,0.06668990850448608,0.0,0.0,0.0,0.01117010721276371,-0.0006938535275622634,0.0,-105.2126127,1500.0,0.006200658157467842,0.0,0.0029342646472654997,0.6670648401122328,0.0,1500.0,0.0,1809.43,0.35218286514282227,0.0,0.0,0.0,0.0,19.954867,0.0,-0.7351186871528625,0.0,0.08544321358203888,0.0,-82.0,-9.259489059448242,18.0,-0.0006085086423195125,-0.7631181478500366,0.0,,,,,,,
12.700698000000001,1500.0,21.049907684326172,140.0,0.0,0.0,0.0,0.0,0.0,0.0,20.015462,483.0,39.8421932,0.5237412452697754,1.755669116973877,0.022514747350726852,0.08848070353269577,0.0,0.0,0.0,0.009948376736367679,-0.00030997699661152416,0.0,-105.2126127,1500.0,0.03664859011769295,0.0,0.004030111223197822,0.6852162643329738,0.0,1500.0,0.0,1809.43,0.6152082681655884,0.0,0.0,0.0,0.0,20.054887,0.0,-0.5634121298789978,0.0,0.3645067811012268,0.0,-86.0,-9.082906723022461,18.0,-0.0017024780017725189,-0.7657055258750916,0.0,,,,,,,
12.800768,1500.0,21.04781150817871,141.0,0.0,0.0,0.0,0.0,0.0,0.0,20.135866999999998,486.0,39.842195499999995,0.5014278292655945,1.6799525022506714,0.011693705988362009,0.09344711899757385,0.0,0.0,0.0,0.012566370614359171,0.0005832454124807759,0.0,-105.212612,1500.0,0.11377132683992386,0.0,0.004859927771879944,0.7187265859712649,0.0,1500.0,0.0,1809.39,0.31948938965797424,0.0,0.0,0.0,0.0,20.154957,0.0,-0.5312171578407288,0.0,-0.10562920570373535,0.0,-92.0,-8.896466255187988,18.0,-0.0001259164312104909,-0.7615966796875,0.0,,,,,,,
12.900691999999998,1500.0,21.04467010498047,139.0,0.0,0.0,0.0,0.0,0.0,0.0,20.215578,490.0,39.842195499999995,0.4769105017185211,1.6293280124664307,0.013264502315156905,0.10550802201032639,0.0,0.0,0.0,0.01064650843716541,-0.0005238728497244276,0.0,-105.212612,1500.0,0.1346544325351715,0.0,0.004484411655205763,0.742986662573986,0.0,1500.0,0.0,1809.39,0.33028942346572876,0.0,0.0,0.0,0.0,20.254880999999997,0.0,-0.7512161731719971,0.0,0.5917371511459351,0.0,-96.0,-9.155030250549316,18.0,0.002009465704090159,-0.7657055258750916,0.0,,,,,,,
13.00069,1500.0,21.04618263244629,132.0,0.0,0.0,0.0,0.0,0.0,0.0,20.335862,492.0,39.842197899999995,0.46378806233406067,1.5587923526763916,0.024609142453120045,0.10852301120758057,0.0,0.0,0.0,0.00942477796076938,-0.0013560847479602506,0.0,-105.21261109999999,1500.0,0.19612279534339905,0.0,0.004948056557718249,0.7782423134642716,0.0,1500.0,0.0,1809.3600000000001,0.08669302612543106,0.0,0.0,0.0,0.0,20.354879,0.0,-0.4614613652229309,0.0,-0.21193647384643555,0.0,-105.0,-9.825028419494629,18.0,0.0013870205889431535,-0.7646405696868896,0.0,,,,,,,
13.100709,1500.0,21.04467010498047,130.0,0.0,0.0,0.0,0.0,0.0,0.0,20.415877,493.0,39.842197899999995,0.36340516805648804,1.5109968185424805,0.026703537555513242,0.08246181160211563,0.0,0.0,0.0,0.010297442586766544,-0.00014636976520569558,0.0,-105.21261109999999,1500.0,0.24555790424346924,0.0,0.005599268624013127,0.8037241205433888,0.0,1500.0,0.0,1809.3600000000001,0.4210774898529053,0.0,0.0,0.0,0.0,20.454898,0.0,-0.5097538232803345,0.0,0.4770526587963104,0.0,-108.0,-8.909398078918457,18.0,-0.0016212808468866874,-0.7670754790306091,0.0,,,,,,,
13.200717,1500.0,21.045717239379883,137.0,0.0,0.0,0.0,0.0,0.0,0.0,20.536597999999998,494.0,39.8422002,0.309604674577713,1.4322818517684937,0.012042771838760876,0.055618610233068466,0.0,0.0,0.0,0.00942477796076938,-0.0005121123862666175,0.0,-105.21261,1500.0,0.3054465353488922,0.0,0.004182910090741118,0.8422958970124634,0.0,1500.0,0.0,1809.3400000000001,-0.1567268669605255,0.0,0.0,0.0,0.0,20.554906,0.0,-0.6921920776367188,0.0,0.8203392624855042,0.0,-115.0,-9.716832160949707,18.0,-0.002663867712020815,-0.764336109161377,0.0,,,,,,,
13.300657,1500.0,21.043622970581055,140.0,0.0,0.0,0.0,0.0,0.0,0.0,20.615942999999998,490.0,39.8422002,0.29538169503211975,1.381555199623108,0.0010471975511965976,0.03029908426105976,0.0,0.0,0.0,0.010122909661567111,-0.0004919521397812714,0.0,-105.21261,1500.0,0.32994332909584045,0.0,0.004325453447418683,0.8635889138867944,0.0,1500.0,0.0,1809.3400000000001,0.048560209572315216,0.0,0.0,0.0,0.0,20.654846,0.0,-0.5473146438598633,0.0,-0.06669331341981888,0.0,-119.0,-8.710424423217773,18.0,-0.0010943225403866321,-0.7615966796875,0.0,,,,,,,
13.40066,1500.0,21.043855667114258,137.0,0.0,0.0,0.0,0.0,0.0,0.0,20.735841,493.0,39.8422024,0.274463415145874,1.313651204109192,-0.0008726646259971648,0.008302269503474236,0.0,0.0,0.0,0.005759586531581287,-0.00040628069871393737,0.0,-105.21260869999999,1500.0,0.3550521433353424,0.0,0.0041126819606322135,0.8944812416470939,0.0,1500.0,0.0,1809.3,0.2099849134683609,0.0,0.0,0.0,0.0,20.754849,0.0,-0.6975578665733337,0.0,0.20315396785736084,0.0,-127.0,-8.581082344055176,18.0,0.001637014043189846,-0.7722492814064026,0.0,,,,,,,
13.500661,1500.0,21.04467010498047,131.0,0.0,0.0,0.0,0.0,0.0,0.0,20.815469,495.0,39.8422024,0.2947584092617035,1.2730432748794556,0.0066322511575784525,0.007917897775769234,0.0,0.0,0.0,0.004886921905584123,0.0008534579550288919,0.0,-105.21260869999999,1500.0,0.3781774342060089,0.0,0.005662851074890118,0.9171705219230203,0.0,1500.0,0.0,1809.3,0.5455768704414368,0.0,0.0,0.0,0.0,20.85485,0.0,-0.5956071019172668,0.0,0.8088014125823975,0.0,-131.0,-9.927780151367188,18.0,0.0017017925758884462,-0.7698143720626831,0.0,,,,,,,
13.600716,1500.0,21.04676628112793,123.0,0.0,0.0,0.0,0.0,0.0,0.0,20.935865,499.0,39.8422045,0.19083240628242493,1.213515281677246,0.009773843811168246,-0.006979399360716343,0.0,0.0,0.0,0.006108652381980154,-0.001454797388499857,0.0,-105.21260749999999,1500.0,0.41100066900253296,0.0,0.005316407106584435,0.9569640288684909,0.0,1500.0,0.0,1809.28,-0.04925185814499855,0.0,0.0,0.0,0.0,20.954905,0.0,-0.6170704364776611,0.0,-0.1275363713502884,0.0,-135.0,-9.696025848388672,18.0,-0.001843376388343174,-0.7684448957443237,0.0,,,,,,,
13.700695999999999,1500.0,21.045717239379883,124.0,0.0,0.0,0.0,0.0,0.0,0.0,21.015563,493.0,39.8422045,0.16758470237255096,1.1727545261383057,-0.0019198621771937625,-0.04441671818494797,0.0,0.0,0.0,0.005934119456780721,0.0009650022076439477,0.0,-105.21260749999999,1500.0,0.44102761149406433,0.0,0.006605284487723014,0.9845402310500013,0.0,1500.0,0.0,1809.28,0.23742718994617462,0.0,0.0,0.0,0.0,21.054885,0.0,-0.4882905185222626,0.0,-0.4474676251411438,0.0,-142.0,-9.119054794311523,18.0,-0.002308116983987741,-0.7629661560058594,0.0,,,,,,,
13.800710999999998,1500.0,21.043855667114258,128.0,0.0,0.0,0.0,0.0,0.0,0.0,21.135828,489.0,39.8422066,0.16604869067668915,1.113308310508728,-0.013788101090755204,-0.046865418553352356,0.0,0.0,0.0,0.0013962634015954637,0.0005255100176015808,0.0,-105.2126062,1500.0,0.4711994528770447,0.0,0.006403374745054325,1.030791456227851,0.0,1500.0,0.0,1809.29,-0.22924068570137024,0.0,0.0,0.0,0.0,21.154899999999998,0.0,-0.5365830063819885,0.0,0.9179742336273193,0.0,-145.0,-9.404213905334473,18.0,0.0005149664744206865,-0.7692059278488159,0.0,,,,,,,
13.900678999999998,1500.0,21.04781150817871,120.0,0.0,0.0,0.0,0.0,0.0,0.0,21.215578,490.0,39.8422066,0.19695031642913818,1.07644522190094,-0.007155849933176752,-0.0596543550491333,0.0,0.0,0.0,0.005934119456780721,-0.001977470450343542,0.0,-105.2126062,1500.0,0.4966204762458801,0.0,0.006212440659057855,1.0636036461653444,0.0,1500.0,0.0,1809.29,0.23186150193214417,0.0,0.0,0.0,0.0,21.254868,0.0,-0.6009729504585266,0.0,0.568784773349762,0.0,-154.0,-9.838438034057617,18.0,0.001644853593611604,-0.764336109161377,0.0,,,,,,,
14.000721,1500.0,21.045717239379883,110.0,0.0,0.0,0.0,0.0,0.0,0.0,21.335848,495.0,39.8422085,0.14279761910438538,1.0248146057128906,0.003839724354387525,-0.09070831537246704,0.0,0.0,0.0,0.0022689280275926286,-0.00019871238891464284,0.0,-105.21260459999999,1500.0,0.5284355282783508,0.0,0.006145785690102915,1.1100294042683936,0.0,1500.0,0.0,1809.26,0.3323124945163727,0.0,0.0,0.0,0.0,21.35491,0.0,-0.7351186871528625,0.0,0.6145660281181335,0.0,-162.0,-9.540023803710938,18.0,0.0007539381088024364,-0.7670754790306091,0.0,,,,,,,
14.100675999999998,1500.0,21.049907684326172,106.0,0.0,0.0,0.0,0.0,0.0,0.0,21.415896999999998,495.0,39.8422085,0.06953208893537521,0.9926220774650574,0.0,-0.11349431425333023,0.0,0.0,0.0,0.0013962634015954637,-0.0007725011088195481,0.0,-105.21260459999999,1500.0,0.555816113948822,0.0,0.004852500049152144,1.1370820076743058,0.0,1500.0,0.0,1809.26,0.17306996881961823,0.0,0.0,0.0,0.0,21.454864999999998,0.0,-0.5741438269615173,0.0,0.15997925400733948,0.0,-164.0,-8.983567237854004,18.0,-0.0027842116444476974,-0.7629661560058594,0.0,,,,,,,
14.200693,1500.0,21.04676628112793,110.0,0.0,0.0,0.0,0.0,0.0,0.0,21.536616,492.0,39.8422104,0.04782019183039665,0.9453787803649902,-0.01832595714594046,-0.16192440688610077,0.0,0.0,0.0,0.003665191429188092,0.0005138583627395776,0.0,-105.2126029,1500.0,0.577587902545929,0.0,0.004086867243186884,1.1712904610133945,0.0,1500.0,0.0,1809.24,-0.3433881103992462,0.0,0.0,0.0,0.0,21.554882,0.0,-0.6760945916175842,0.0,-0.35128656029701233,0.0,-168.0,-8.976020812988281,18.0,-0.0020570171735616346,-0.7657055258750916,0.0,,,,,,,
14.300679999999998,1500.0,21.04967498779297,111.0,0.0,0.0,0.0,0.0,0.0,0.0,21.615858,485.0,39.8422104,0.055996596813201904,0.916740894317627,-0.02530727415391778,-0.17251910269260406,0.0,0.0,0.0,0.0,0.0008591860920414891,0.0,-105.2126029,1500.0,0.5606444478034973,0.0,0.0023572288994104344,1.1887437535333378,0.0,1500.0,0.0,1809.24,-0.2990303933620453,0.0,0.0,0.0,0.0,21.654868999999998,0.0,-0.5741438269615173,0.0,0.4425703287124634,0.0,-169.0,-8.424943923950195,18.0,0.0003888874805022984,-0.7631181478500366,0.0,,,,,,,
14.400677,1500.0,21.045717239379883,110.0,0.0,0.0,0.0,0.0,0.0,0.0,21.735841999999998,483.0,39.842211999999996,0.05461498349905014,0.8806532025337219,-0.017278759594743863,-0.20322756469249725,0.0,0.0,0.0,0.0,0.00018677523746214804,0.0,-105.21260099999999,1500.0,0.5294378995895386,0.0,0.0013661397415212508,1.2048007826516858,0.0,1500.0,0.0,1809.22,-0.2651689648628235,0.0,0.0,0.0,0.0,21.754866,0.0,-0.6278020739555359,0.0,-0.6810586452484131,0.0,-173.0,-9.224142074584961,18.0,0.0028602602379546463,-0.7670754790306091,0.0,,,,,,,
14.500669,1500.0,21.04676628112793,98.0,0.0,0.0,0.0,0.0,0.0,0.0,21.815618999999998,490.0,39.842211999999996,0.055347610265016556,0.857712984085083,-0.0029670597283903604,-0.1638077348470688,0.0,0.0,0.0,-0.0015707963267948964,-0.0007590490244227454,0.0,-105.21260099999999,1500.0,0.5247247219085693,0.0,0.0010686049607017659,1.213003830136059,0.0,1500.0,0.0,1809.22,0.4000295400619507,0.0,0.0,0.0,0.0,21.854858,0.0,-0.552680492401123,0.0,0.12230166792869568,0.0,-175.0,-9.750551223754883,18.0,0.0009636885072087659,-0.7684448957443237,0.0,,,,,,,
14.600708,1500.0,21.04618263244629,95.0,0.0,0.0,0.0,0.0,0.0,0.0,21.935855999999998,490.0,39.8422134,-0.011633200570940971,0.8229064345359802,-0.0020943951023931952,-0.1381113976240158,0.0,0.0,0.0,-0.004014257279586958,0.00015248190195945506,0.0,-105.21259909999999,1500.0,0.532132625579834,0.0,0.001967883850642232,1.224697536124421,0.0,1500.0,0.0,1809.19,0.15059587359428406,0.0,0.0,0.0,0.0,21.954897,0.0,-0.6546312570571899,0.0,0.18225237727165222,0.0,-175.0,-9.643080711364746,18.0,-0.002036430990350187,-0.7646405696868896,0.0,,,,,,,
14.700701,1500.0,21.048858642578125,101.0,0.0,0.0,0.0,0.0,0.0,0.0,22.015567,490.0,39.8422134,-0.041891347616910934,0.7979720234870911,-0.013264502315156905,-0.13526494801044464,0.0,0.0,0.0,-0.004014257279586958,0.0007760045700543584,0.0,-105.21259909999999,1500.0,0.5359005331993103,0.0,0.0024508644990105894,1.2353440445615864,0.0,1500.0,0.0,1809.19,0.09570557624101639,0.0,0.0,0.0,0.0,22.05489,0.0,-0.6331679224967957,0.0,-0.5351545810699463,0.0,-178.0,-9.007562637329102,18.0,-0.0024097314038108004,-0.764336109161377,0.0,,,,,,,
14.800733,1500.0,21.04676628112793,105.0,0.0,0.0,0.0,0.0,0.0,0.0,22.135844,485.0,39.8422147,-0.009818113408982754,0.764738142490387,-0.02775073510670984,-0.07476308196783066,0.0,0.0,0.0,-0.007504915783575617,-7.114173057672996e-05,0.0,-105.2125971,1500.0,0.5284366607666016,0.0,0.002067652913090813,1.253320935857128,0.0,1500.0,0.0,1809.17,-0.46596696972846985,0.0,0.0,0.0,0.0,22.154922,0.0,-0.5151196718215942,0.0,0.5731231570243835,0.0,-183.0,-9.674606323242188,18.0,-0.0010002803795976032,-0.7657055258750916,0.0,,,,,,,
14.900705,1500.0,21.05304718017578,103.0,0.0,0.0,0.0,0.0,0.0,0.0,22.215578999999998,486.0,39.8422147,-0.008806511759757996,0.7440090775489807,-0.026354471705114377,-0.0684812068939209,0.0,0.0,0.0,-0.0054105206811824215,-0.0024759374844804402,0.0,-105.2125971,1500.0,0.5114361643791199,0.0,0.0019533607801742433,1.2650146418454902,0.0,1500.0,0.0,1809.17,0.1704903095960617,0.0,0.0,0.0,0.0,22.254894,0.0,-0.7136553525924683,0.0,-0.6840707063674927,0.0,-185.0,-8.69642162322998,18.0,0.0013273348316806793,-0.7629661560058594,0.0,,,,,,,
15.000700999999998,1500.0,21.04781150817871,101.0,0.0,0.0,0.0,0.0,0.0,0.0,22.335881999999998,489.0,39.8422161,-0.0305230263620615,0.7186875343322754,-0.016057029118347832,-0.051326341927051544,0.0,0.0,0.0,-0.012566370614359171,0.0006418315754962915,0.0,-105.2125952,1500.0,0.4994450807571411,0.0,0.0022063303949613968,1.278628210011046,0.15584638714790344,1500.0,0.0,1809.15,0.26230359077453613,0.1623966246843338,0.0,0.0,0.0,22.354889999999997,0.0,-0.5956071019172668,0.0,-1.0651144981384277,0.0,-190.0,-7.818999290466309,18.0,0.00200787873055777,-0.7670754790306091,0.0,,,,,,,
15.100743,1500.0,21.052001953125,97.0,0.0,0.0,0.0,0.0,0.0,0.0,22.415844999999997,488.0,39.8422161,-0.05104485899209976,0.7042868733406067,-0.011344640137963142,-0.01905883476138115,0.0,0.0,0.0,-0.01815142422074103,0.001465079296909597,0.0,-105.2125952,1500.0,0.5102522969245911,0.0,0.001933129858491023,1.2882275208970146,0.15584638714790344,1500.0,0.0,1809.15,0.7393071055412292,0.1623966246843338,0.0,0.0,0.0,22.454932,0.0,-0.6117045879364014,0.0,-0.4039551615715027,0.0,-191.0,-8.613024711608887,18.0,-0.0005667815373609594,-0.7631181478500366,0.0,,,,,,,
15.200725999999998,1500.0,21.04676628112793,98.0,0.0,0.0,0.0,0.0,0.0,0.0,22.536618,488.0,39.842217399999996,-0.07972761243581772,0.6809079647064209,-0.019198621771937627,0.029909642413258553,0.0,0.0,0.0,-0.022689280275926284,0.0014034790025021407,0.0,-105.21259309999999,1500.0,0.5476412773132324,0.0,0.0013620664574399207,1.3018410890625705,0.3005608916282654,1500.0,0.0,1809.13,0.0087642977014184,0.3418876528739929,0.0,0.0,0.0,22.554914999999998,0.0,-0.6492654085159302,0.0,1.8891043663024902,0.0,-192.0,-10.306437492370605,18.0,-0.0014923311850759987,-0.7684448957443237,0.0,,,,,,,
15.300655,1500.0,21.049907684326172,97.0,0.0,0.0,0.0,0.0,0.0,0.0,22.615893999999997,486.0,39.842217399999996,-0.060949184000492096,0.6641508340835571,-0.02408554367752175,0.0609251894056797,0.0,0.0,0.0,-0.0153588974175501,-0.0014179223601894547,0.0,-105.21259309999999,1500.0,0.5659056901931763,0.0,0.0016417996708479074,1.312138531649337,0.3005608916282654,1500.0,0.0,1809.13,0.06162233650684357,0.3418876528739929,0.0,0.0,0.0,22.654844,0.0,-0.5795096158981323,0.0,-0.5240436792373657,0.0,-191.0,-9.324590682983398,18.0,-0.0013886639986041116,-0.764336109161377,0.0,,,,,,,
15.400688,1500.0,21.043622970581055,96.0,0.0,0.0,0.0,0.0,0.0,0.0,22.735864,489.0,39.8422187,-0.04670031741261482,0.6452921628952026,-0.02548180707911721,0.09942720830440521,0.0,0.0,0.0,-0.013788101090755204,0.0006621689976156823,0.0,-105.2125911,1500.0,0.5904355645179749,0.0,0.0016060767717981544,1.3248794351888955,0.44527536630630493,1500.0,0.0,1809.13,-0.14340052008628845,0.5128315091133118,0.0,0.0,0.0,22.754877,0.0,-0.5902413129806519,0.0,-0.7172214388847351,0.0,-192.0,-9.830370903015137,18.0,0.001433097306953565,-0.7698143720626831,0.0,,,,,,,
15.500628,1500.0,21.04618263244629,92.0,0.0,0.0,0.0,0.0,0.0,0.0,22.815582,491.0,39.8422187,-0.06278166174888611,0.6324056386947632,-0.017453292519943295,0.18815197050571442,0.0,0.0,0.0,-0.022514747350726852,-0.00047832973921075147,0.0,-105.2125911,1500.0,0.5591040253639221,0.0,0.0013305574126442703,1.3311626204960751,0.44527536630630493,1500.0,0.0,1809.13,0.4116716980934143,0.5128315091133118,0.0,0.0,0.0,22.854817,0.0,-0.4990221858024597,0.0,1.3868199586868286,0.0,-196.0,-9.103046417236328,18.0,0.0016002479860217037,-0.7661620378494263,0.0,,,,,,,
15.600692,1500.0,21.04676628112793,86.0,0.0,0.0,0.0,0.0,0.0,0.0,22.935852999999998,497.0,39.8422201,-0.08700872212648392,0.6125194430351257,-0.013089969389957472,0.21409158408641815,0.0,0.0,0.0,-0.022863813201125717,-0.0015030703041494457,0.0,-105.21258879999999,1500.0,0.5411493182182312,0.0,0.002456997831821853,1.3444271228112321,0.6011217832565308,1500.0,0.0,1809.1000000000001,-0.34013038873672485,0.709416925907135,0.0,0.0,0.0,22.954881,0.0,-0.42926639318466187,0.0,0.2586752772331238,0.0,-197.0,-9.920679092407227,18.0,-0.0011399532309293203,-0.7657055258750916,0.0,,,,,,,
15.700687999999998,1500.0,21.050954818725586,91.0,0.0,0.0,0.0,0.0,0.0,0.0,23.015587,499.0,39.8422201,-0.10863751918077469,0.594710111618042,-0.018675022996339326,0.206929013133049,0.0,0.0,0.0,-0.028448866807507574,0.0008214669925086402,0.0,-105.21258879999999,1500.0,0.5358964204788208,0.0,0.002076528339549855,1.3554226970987964,0.6011217832565308,1500.0,0.0,1809.1000000000001,-0.34869158267974854,0.709416925907135,0.0,0.0,0.0,23.054876999999998,0.0,-0.4668272137641907,0.0,0.7515714764595032,0.0,-199.0,-9.339553833007812,18.0,-0.0014447407044557428,-0.7615966796875,0.0,,,,,,,
15.800707999999998,1500.0,21.04676628112793,93.0,0.0,0.0,0.0,0.0,0.0,0.0,23.135849,497.0,39.8422215,-0.09391642361879349,0.5675150156021118,-0.025132741228718343,0.2585553824901581,0.0,0.0,0.0,-0.031415926535897934,-0.0017298913960948716,0.0,-105.2125865,1500.0,0.5082893967628479,0.0,0.0020182832640118433,1.371305193291945,0.7569681406021118,1500.0,0.0,1809.07,-0.22352786362171173,0.9060023427009583,0.0,0.0,0.0,23.154897,0.0,-0.4453638792037964,0.0,0.4804619550704956,0.0,-202.0,-8.849324226379395,18.0,-0.00034334098902239466,-0.764336109161377,0.0,,,,,,,
15.900702,1500.0,21.04967498779297,90.0,0.0,0.0,0.0,0.0,0.0,0.0,23.215569,493.0,39.8422215,-0.08239872008562088,0.551082968711853,-0.02199114857512855,0.26323097944259644,0.0,0.0,0.0,-0.03700098014227979,0.0005641543315463395,0.0,-105.2125865,1500.0,0.48824793100357056,0.0,0.0022421657761568002,1.3816026358787112,0.7569681406021118,1500.0,0.0,1809.07,-0.2905701994895935,0.9060023427009583,0.0,0.0,0.0,23.254891,0.0,-0.6814603805541992,0.0,0.5827704668045044,0.0,-201.0,-9.478883743286133,18.0,0.002238543460955372,-0.7646405696868896,0.0,,,,,,,
16.000729,1500.0,21.04676628112793,79.0,0.0,0.0,0.0,0.0,0.0,0.0,23.33585,495.0,39.842222799999995,-0.09533677995204926,0.5293064713478088,-0.0012217304763960308,0.2531370520591736,0.0,0.0,0.0,-0.031066860685499065,-0.0006176827641410501,0.0,-105.21258429999999,1500.0,0.4717964828014374,0.0,0.0025610306827949757,1.398008730847458,0.9016826748847961,1500.0,0.0,1809.04,0.3734869360923767,1.0940405130386353,0.0,0.0,0.0,23.354917999999998,0.0,-0.6438995599746704,0.0,-1.076387643814087,0.0,-202.0,-8.378829956054688,18.0,0.0025527236487736652,-0.7657055258750916,0.0,,,,,,,
16.100685999999996,1500.0,21.049907684326172,70.0,0.0,0.0,0.0,0.0,0.0,0.0,23.415882999999997,496.0,39.842222799999995,-0.12329857796430588,0.520280659198761,0.006457718232379019,0.3100780248641968,0.0,0.0,0.0,-0.03700098014227979,0.0012739328602265987,0.0,-105.21258429999999,1500.0,0.4617871642112732,0.0,0.002780960715382659,1.4081316405090252,0.9016826748847961,1500.0,0.0,1809.04,0.22446957230567932,1.0940405130386353,0.0,0.0,0.0,23.454874999999998,0.0,-0.5312171578407288,0.0,0.6597318649291992,0.0,-207.0,-9.529400825500488,18.0,-0.00042085373596165577,-0.764336109161377,0.0,,,,,,,
16.20071,1500.0,21.04676628112793,70.0,0.0,0.0,0.0,0.0,0.0,0.0,23.536596,499.0,39.842224,-0.14452625811100006,0.5036624670028687,0.0010471975511965976,0.348270058631897,0.0,0.0,0.0,-0.038397243543875255,-0.0008955686696171194,0.0,-105.212582,1500.0,0.46667128801345825,0.0,0.002533840172169322,1.4289010586077577,1.0352652072906494,1500.0,0.0,1809.01,-0.025284798815846443,1.290625810623169,0.0,0.0,0.0,23.554899,0.0,-0.3863397538661957,0.0,0.6273982524871826,0.0,-206.0,-10.495819091796875,18.0,-0.0021996077337292233,-0.7670754790306091,0.0,,,,,,,
16.300691,1500.0,21.050838470458984,70.0,0.0,0.0,0.0,0.0,0.0,0.0,23.615852999999998,492.0,39.842224,-0.13094475865364075,0.48892471194267273,-0.006108652381980154,0.34798142313957214,0.0,0.0,0.0,-0.03944444109507185,-0.00031099817844943393,0.0,-105.212582,1500.0,0.47862428426742554,0.0,0.002970316670373797,1.4412928962969174,1.0352652072906494,1500.0,0.0,1809.01,0.0018160868203267455,1.290625810623169,0.0,0.0,0.0,23.65488,0.0,-0.552680492401123,0.0,0.5960444211959839,0.0,-209.0,-9.480425834655762,18.0,-0.0015914889428231902,-0.7631181478500366,0.0,,,,,,,
16.400692999999997,1500.0,21.04257583618164,71.0,0.0,0.0,0.0,0.0,0.0,0.0,23.735868999999997,495.0,39.8422252,-0.1122438907623291,0.4702659249305725,-0.007853981633974483,0.3439739942550659,0.0,0.0,0.0,-0.03700098014227979,-0.0005432565142747174,0.0,-105.21257969999999,1500.0,0.4761652946472168,0.0,0.002922853886247216,1.4622368473208494,1.168847918510437,1500.0,0.0,1808.99,0.1914481222629547,1.4872113466262817,0.0,0.0,0.0,23.754882,0.0,-0.3380472958087921,0.0,-0.20921477675437927,0.0,-208.0,-8.837295532226562,18.0,0.0013148363097972337,-0.7684448957443237,0.0,,,,,,,
16.500666000000002,1500.0,21.048858642578125,67.0,0.0,0.0,0.0,0.0,0.0,0.0,23.815593,495.0,39.8422252,-0.1154826432466507,0.4591159522533417,0.0006981317007977319,0.36130422353744507,0.0,0.0,0.0,-0.03961897402027128,0.00031108653870142166,0.0,-105.21257969999999,1500.0,0.4664698839187622,0.0,0.003434838023362218,1.474105086234411,1.168847918510437,1500.0,0.0,1808.99,0.6504049301147461,1.4872113466262817,0.0,0.0,0.0,23.854855,0.0,-0.47755885124206543,0.0,-0.3629739582538605,0.0,-214.0,-8.264143943786621,18.0,0.002941213313086275,-0.764336109161377,0.0,,,,,,,
16.60069,1500.0,21.045717239379883,56.0,0.0,0.0,0.0,0.0,0.0,0.0,23.935864,500.0,39.8422263,-0.14134912192821503,0.4414826035499573,0.015009831567151233,0.38780325651168823,0.0,0.0,0.0,-0.03787364476827695,-3.593339670671404e-05,0.0,-105.21257709999999,1500.0,0.5011903643608093,0.0,0.0036630735295252606,1.4962707677347389,1.2912986278533936,1500.0,0.0,1808.94,0.2251121997833252,1.7094383239746094,0.0,0.0,0.0,23.954879,0.0,-0.45072972774505615,0.0,0.02188386581838131,0.0,-214.0,-9.309599876403809,18.0,-0.00010970385290740183,-0.7629661560058594,0.0,,,,,,,
16.700701000000002,1500.0,21.04967498779297,50.0,0.0,0.0,0.0,0.0,0.0,0.0,24.015477,498.0,39.8422263,-0.16352857649326324,0.4275265038013458,0.011868238913561441,0.3818068504333496,0.0,0.0,0.0,-0.038571776469074684,0.0004715139713701551,0.0,-105.21257709999999,1500.0,0.4865533709526062,0.0,0.003997595170614985,1.5133749944042834,1.2912986278533936,1500.0,0.0,1808.94,0.5040345788002014,1.7094383239746094,0.0,0.0,0.0,24.05489,0.0,-0.6331679224967957,0.0,0.005711715668439865,0.0,-213.0,-8.855950355529785,18.0,-0.0021281642762986442,-0.7646405696868896,0.0,,,,,,,
16.800711,1500.0,21.04781150817871,51.0,0.0,0.0,0.0,0.0,0.0,0.0,24.135848,497.0,39.8422274,-0.14188842475414276,0.41065678000450134,-0.0005235987755982988,0.40352553129196167,0.0,0.0,0.0,-0.039269908169872414,-0.0006638585704693639,0.0,-105.2125746,1500.0,0.5141744017601013,0.0,0.004069804286858962,1.5400785319597963,1.41374933719635,1500.0,0.0,1808.92,0.2948135435581207,1.923117995262146,0.0,0.0,0.0,24.154899999999998,0.0,-0.5312171578407288,0.0,-0.06286385655403137,0.0,-215.0,-8.951982498168945,18.0,-0.0015583527430119068,-0.7657055258750916,0.0,,,,,,,
16.900684999999996,1500.0,21.05304718017578,48.0,0.0,0.0,0.0,0.0,0.0,0.0,24.215567,495.0,39.8422274,-0.14431419968605042,0.4029734134674072,-0.0027925268031909274,0.39271050691604614,0.0,0.0,0.0,-0.040491638646268445,-0.000525016526569508,0.0,-105.2125746,1500.0,0.519473135471344,0.0,0.004570445282280232,1.5582299561805375,1.41374933719635,1500.0,0.0,1808.92,0.3596196174621582,1.923117995262146,0.0,0.0,0.0,24.254873999999997,0.0,-0.41316890716552734,0.0,-0.22929343581199646,0.0,-220.0,-8.421485900878906,18.0,0.0007709588680710939,-0.764336109161377,0.0,,,,,,,
17.000700000000002,1500.0,21.048858642578125,44.0,0.0,0.0,0.0,0.0,0.0,0.0,24.335839,494.0,39.8422285,-0.12489522993564606,0.3931138217449188,0.00767944870877505,0.3938499987125397,0.0,0.0,0.0,-0.04310963252425994,-0.00018831427604547305,0.0,-105.212572,1500.0,0.5247013568878174,0.0,0.004146819576632691,1.5858061583620477,1.5362000465393066,1500.0,0.0,1808.9,0.4579886496067047,2.1453449726104736,0.0,0.0,0.0,24.354889,0.0,-0.45609554648399353,0.0,0.3148784339427948,0.0,-225.0,-8.769591331481934,18.0,0.002323347976768932,-0.764336109161377,0.0,,,,,,,
17.100710999999997,1500.0,21.05432891845703,33.0,0.0,0.0,0.0,0.0,0.0,0.0,24.415889,493.0,39.8422285,-0.1285833716392517,0.3865865170955658,0.01780235837034216,0.3840961158275604,0.0,0.0,0.0,-0.0460766922526503,0.000448325386932854,0.0,-105.212572,1500.0,0.5249642729759216,0.0,0.0040974985614525335,1.6022122533307945,1.5362000465393066,1500.0,0.0,1808.9,0.5425387620925903,2.1453449726104736,0.0,0.0,0.0,24.4549,0.0,-0.5419487953186035,0.0,0.47814053297042847,0.0,-226.0,-9.690258026123047,18.0,0.0007455676816643575,-0.7631181478500366,0.0,,,,,,,
17.200697999999996,1500.0,21.04781150817871,30.0,0.0,0.0,0.0,0.0,0.0,0.0,24.536593999999997,492.0,39.8422294,-0.18185651302337646,0.3736916780471802,0.017627825445142728,0.36274605989456177,0.0,0.0,0.0,-0.04642575810304917,0.00014831032603784347,0.0,-105.2125691,1500.0,0.5309644341468811,0.0,0.003714568766064115,1.6273449945595129,1.6363869905471802,1500.0,0.0,1808.8500000000001,0.2501005530357361,2.3932135105133057,0.0,0.0,0.0,24.554886999999997,0.0,-0.4668272137641907,0.0,0.11213921010494232,0.0,-230.0,-9.625090599060059,18.0,-0.001541775735560627,-0.7670754790306091,0.0,,,,,,,
17.300734,1500.0,21.050954818725586,33.0,0.0,0.0,0.0,0.0,0.0,0.0,24.615937,489.0,39.8422294,-0.196152925491333,0.3635686933994293,0.010122909661567111,0.36284273862838745,0.0,0.0,0.0,-0.0471238898038469,-7.009882440534307e-05,0.0,-105.2125691,1500.0,0.5180622935295105,0.0,0.0030054605139384852,1.6423548261266643,1.6363869905471802,1500.0,0.0,1808.8500000000001,0.11132148653268814,2.3932135105133057,0.0,0.0,0.0,24.654923,0.0,-0.5097538232803345,0.0,0.9247851371765137,0.0,-235.0,-8.637897491455078,18.0,-0.0014704944344718124,-0.7629661560058594,0.0,,,,,,,
17.400683,1500.0,21.04676628112793,33.0,0.0,0.0,0.0,0.0,0.0,0.0,24.735877,492.0,39.8422303,-0.13947728276252747,0.35115641355514526,0.0054105206811824215,0.3332051932811737,0.0,0.0,0.0,-0.04345869837465881,0.0001165520975293579,0.0,-105.21256609999999,1500.0,0.5068026185035706,0.0,0.002881466178283053,1.6615534478986018,1.7365739345550537,1500.0,0.0,1808.82,0.03281160816550255,2.6496293544769287,0.0,0.0,0.0,24.754872,0.0,-0.5419487953186035,0.0,-0.19785729050636292,0.0,-232.0,-8.964024543762207,18.0,0.0004540180563093516,-0.7684448957443237,0.0,,,,,,,
17.500709,1500.0,21.04967498779297,31.0,0.0,0.0,0.0,0.0,0.0,0.0,24.815475,492.0,39.8422303,-0.1232299730181694,0.3474535346031189,0.01117010721276371,0.3479911684989929,0.0,0.0,0.0,-0.0466002910282486,-0.0005870644739092201,0.0,-105.21256609999999,1500.0,0.5032796263694763,0.0,0.002741837214493714,1.672549022186166,1.7365739345550537,1500.0,0.0,1808.82,0.2866588830947876,2.6496293544769287,0.0,0.0,0.0,24.854898,0.0,-0.6331679224967957,0.0,-0.08370283246040344,0.0,-233.0,-9.27779483795166,18.0,0.0023217563218986895,-0.7661620378494263,0.0,,,,,,,
17.600746,1500.0,21.048858642578125,23.0,0.0,0.0,0.0,0.0,0.0,0.0,24.935869,493.0,39.8422311,-0.1620800495147705,0.3436964154243469,0.02652900463031381,0.36038780212402344,0.0,0.0,0.0,-0.05166174585903215,-0.0017910760917306534,0.0,-105.21256299999999,1500.0,0.5022830367088318,0.0,0.0027972039174375407,1.690700446406907,1.8256291151046753,1500.0,0.0,1808.78,0.1329188495874405,2.9145922660827637,0.0,0.0,0.0,24.954935,0.0,-0.5365830063819885,0.0,-0.542945921421051,0.0,-239.0,-8.746981620788574,18.0,0.0006568300618307514,-0.764336109161377,0.0,,,,,,,
17.700727,1500.0,21.05304718017578,17.0,0.0,0.0,0.0,0.0,0.0,0.0,25.015568,486.0,39.8422311,-0.18425236642360687,0.3410731554031372,0.028274333882308142,0.33297568559646606,0.0,0.0,0.0,-0.05846852994181004,0.0009970686567370897,0.0,-105.21256299999999,1500.0,0.4618576765060425,0.0,0.0028547529040441467,1.7004742902180754,1.8256291151046753,1500.0,0.0,1808.78,0.3131887912750244,2.9145922660827637,0.0,0.0,0.0,25.054916,0.0,-0.5312171578407288,0.0,0.03416147828102112,0.0,-244.0,-8.913763046264648,18.0,-0.0004125852904683471,-0.7629661560058594,0.0,,,,,,,
17.800714999999997,1500.0,21.04781150817871,15.0,0.0,0.0,0.0,0.0,0.0,0.0,25.135882,488.0,39.8422319,-0.18916624784469604,0.3345761001110077,0.025830872929516076,0.3226865231990814,0.0,0.0,0.0,-0.053232542185827056,0.0001111256792432869,0.0,-105.21256,1500.0,0.42038801312446594,0.0,0.0034089434630990506,1.7182766485884176,1.9146841764450073,1500.0,0.0,1808.75,-0.9637980461120605,3.1710078716278076,0.0,0.0,0.0,25.154904,0.0,-0.4453638792037964,0.0,-0.91578209400177,0.0,-243.0,-9.669073104858398,18.0,-0.0006509155815641463,-0.764336109161377,0.0,,,,,,,
17.900712999999996,1500.0,21.05432891845703,13.0,0.0,0.0,0.0,0.0,0.0,0.0,25.215481999999998,486.0,39.8422319,-0.1948467493057251,0.32825201749801636,0.027052603405912107,0.3684779703617096,0.0,0.0,0.0,-0.05951572749300664,0.00022084960663766533,0.0,-105.21256,1500.0,0.36036422848701477,0.0,0.002730863118267446,1.7294467558011812,1.9146841764450073,1500.0,0.0,1808.75,0.3985695540904999,3.1710078716278076,0.0,0.0,0.0,25.254901999999998,0.0,-0.5741438269615173,0.0,1.5622272491455078,0.0,-247.0,-7.837750434875488,18.0,0.0010636960578135582,-0.7646405696868896,0.0,,,,,,,
18.000718999999997,1500.0,21.04781150817871,10.0,0.0,0.0,0.0,0.0,0.0,0.0,25.335932999999997,489.0,39.8422327,-0.14495088160037994,0.3254576325416565,0.03665191429188092,0.3086726665496826,0.0,0.0,0.0,-0.04939281783143953,0.0009501377246055487,0.0,-105.2125569,1500.0,0.30920127034187317,0.0,0.0037122189945359052,1.747598180021922,2.00373911857605,1500.0,0.0,1808.73,0.10674846172332764,3.4359707832336426,0.0,0.0,0.0,25.354908,0.0,-0.5741438269615173,0.0,-1.254456877708435,0.0,-245.0,-9.764835357666016,18.0,0.0019873930660730134,-0.7657055258750916,0.0,,,,,,,
18.100718,1500.0,21.050954818725586,0.0,0.0,0.0,0.0,0.0,0.0,0.0,25.415937,490.0,39.8422327,-0.16366606950759888,0.323910653591156,0.046949356878647465,0.37115392088890076,0.0,0.0,0.0,-0.05707226654021458,0.0008487513899656922,0.0,-105.2125569,1500.0,0.27815985679626465,0.0,0.0027424847995634696,1.758768287234686,2.00373911857605,1500.0,0.0,1808.73,0.5070387721061707,3.4359707832336426,0.0,0.0,0.0,25.454907,0.0,-0.3809739351272583,0.0,0.6564799547195435,0.0,-247.0,-9.256175994873047,18.0,0.0036316500491826017,-0.764336109161377,0.0,,,,,,,
18.200708999999996,1500.0,21.048858642578125,-7.0,0.0,0.0,0.0,0.0,0.0,0.0,25.536566999999998,490.0,39.8422331,-0.18302872776985168,0.3191196918487549,0.059341194567807204,0.37409618496894836,0.0,0.0,0.0,-0.05619960191421741,-0.0021242218096028916,0.0,-105.2125538,1500.0,0.2700449228286743,0.0,0.0033233579440869057,1.7760470468294298,2.048266649246216,1500.0,0.0,1808.69,0.14200450479984283,3.7009339332580566,0.0,0.0,0.0,25.554897999999998,0.0,-0.5097538232803345,0.0,-0.28712356090545654,0.0,-248.0,-9.819133758544922,18.0,-0.0018025956938540347,-0.7629661560058594,0.0,,,,,,,
18.300700999999997,1500.0,21.053165435791016,-10.0,0.0,0.0,0.0,0.0,0.0,0.0,25.615921999999998,486.0,39.8422331,-0.21136713027954102,0.3121035397052765,0.05375614096142535,0.32587379217147827,0.0,0.0,0.0,-0.059166661642607775,0.0007456009061594022,0.0,-105.2125538,1500.0,0.24267347157001495,0.0,0.002884458333394514,1.7893115491445866,2.048266649246216,1500.0,0.0,1808.69,0.5434383153915405,3.7009339332580566,0.0,0.0,0.0,25.654889999999998,0.0,-0.4668272137641907,0.0,0.36137300729751587,0.0,-254.0,-9.447011947631836,18.0,-0.002050962513233745,-0.7631181478500366,0.0,,,,,,,
18.400719000000002,1500.0,21.04676628112793,-8.0,0.0,0.0,0.0,0.0,0.0,0.0,25.735888,491.0,39.8422335,-0.196830153465271,0.3002933859825134,0.041713369122664476,0.3356828987598419,0.0,0.0,0.0,-0.057944931166211744,8.657276927793854e-06,0.0,-105.2125509,1500.0,0.22484146058559418,0.0,0.002800298281758807,1.807113907514929,2.092794179916382,1500.0,0.0,1808.67,-0.012144312262535095,3.9488022327423096,0.0,0.0,0.0,25.754908,0.0,-0.4882905185222626,0.0,0.6893609762191772,0.0,-255.0,-9.073219299316406,18.0,-0.0012539858096693376,-0.7698143720626831,0.0,,,,,,,
18.50074,1500.0,21.049907684326172,-9.0,0.0,0.0,0.0,0.0,0.0,0.0,25.815562,491.0,39.8422335,-0.15838003158569336,0.29446178674697876,0.041189770347066175,0.3029625713825226,0.0,0.0,0.0,-0.05480333851262195,-0.0003325275212012303,0.0,-105.2125509,1500.0,0.20580308139324188,0.0,0.0022685968697528608,1.816364152550499,2.092794179916382,1500.0,0.0,1808.67,0.1471722424030304,3.9488022327423096,0.0,0.0,0.0,25.854929,0.0,-0.7136553525924683,0.0,-0.27662742137908936,0.0,-256.0,-9.416642189025879,18.0,0.0011689123770035174,-0.7657055258750916,0.0,,,,,,,
18.600724999999997,1500.0,21.048858642578125,-15.0,0.0,0.0,0.0,0.0,0.0,0.0,25.935865999999997,496.0,39.842234,-0.16676324605941772,0.29202789068222046,0.052534410485029326,0.32665127515792847,0.0,0.0,0.0,-0.056025068989017976,0.00018539702233967044,0.0,-105.212548,1500.0,0.19737796485424042,0.0,0.0027275815004320337,1.828581457314459,2.148453712463379,1500.0,0.0,1808.64,0.6795478463172913,4.196671009063721,0.0,0.0,0.0,25.954914,0.0,-0.5956071019172668,0.0,0.5492823719978333,0.0,-252.0,-9.666629791259766,18.0,0.001129468464545922,-0.7657055258750916,0.0,,,,,,,
18.700705999999997,1500.0,21.05432891845703,-19.0,0.0,0.0,0.0,0.0,0.0,0.0,26.015558,496.0,39.842234,-0.17278096079826355,0.291523277759552,0.05550147021341968,0.3283039629459381,0.0,0.0,0.0,-0.05550147021341968,-0.0014327070654285977,0.0,-105.212548,1500.0,0.2026543766260147,0.0,0.0021758189952772256,1.838180768200428,2.148453712463379,1500.0,0.0,1808.64,0.027570584788918495,4.196671009063721,0.0,0.0,0.0,26.054895,0.0,-0.35414478182792664,0.0,0.30360111594200134,0.0,-254.0,-9.95578384399414,18.0,-0.0009086017742760199,-0.7631181478500366,0.0,,,,,,,
18.800679000000002,1500.0,21.049907684326172,-21.0,0.0,0.0,0.0,0.0,0.0,0.0,26.135845999999997,493.0,39.8422343,-0.18369819223880768,0.2867077589035034,0.0486946861306418,0.34270477294921875,0.0,0.0,0.0,-0.06021385919380437,-0.0015773942147688108,0.0,-105.2125452,1500.0,0.18849360942840576,0.0,0.0024029044527742204,1.8502235400391889,2.181849479675293,1500.0,0.0,1808.6100000000001,0.28060585260391235,4.435992240905762,0.0,0.0,0.0,26.154868,0.0,-0.359510600566864,0.0,-0.5096243619918823,0.0,-253.0,-9.303868293762207,18.0,-0.0016196724172224692,-0.764336109161377,0.0,,,,,,,
18.900717,1500.0,21.052001953125,-23.0,0.0,0.0,0.0,0.0,0.0,0.0,26.215576,493.0,39.8422343,-0.19336964190006256,0.2803691327571869,0.044156830075456545,0.3393746018409729,0.0,0.0,0.0,-0.0656243798749868,-0.0002790790939708103,0.0,-105.2125452,1500.0,0.16151735186576843,0.0,0.0028258185950680065,1.8584265875235622,2.181849479675293,1500.0,0.0,1808.6100000000001,0.16272373497486115,4.435992240905762,0.0,0.0,0.0,26.254906,0.0,-0.7297528982162476,0.0,0.31594130396842957,0.0,-258.0,-8.310819625854492,18.0,0.0004843227944328586,-0.7629661560058594,0.0,,,,,,,
19.000709999999998,1500.0,21.049907684326172,-28.0,0.0,0.0,0.0,0.0,0.0,0.0,26.335887,495.0,39.8422346,-0.16069619357585907,0.27656984329223633,0.05183627878423159,0.326324999332428,0.0,0.0,0.0,-0.06841690667817772,0.0005009980774697746,0.0,-105.21254239999999,1500.0,0.13336428999900818,0.0,0.002601991608791481,1.872040155689118,2.215245008468628,1500.0,0.0,1808.6000000000001,0.24408572912216187,4.675313949584961,0.0,0.0,0.0,26.354899,0.0,-0.41316890716552734,0.0,1.1038799285888672,0.0,-259.0,-9.282074928283691,18.0,0.0020718874432537693,-0.7684448957443237,0.0,,,,,,,
19.100702,1500.0,21.052001953125,-35.0,0.0,0.0,0.0,0.0,0.0,0.0,26.415917999999998,497.0,39.8422346,-0.15861286222934723,0.27497294545173645,0.06300638599699529,0.3190586268901825,0.0,0.0,0.0,-0.06527531402458793,-7.594683942721354e-05,0.0,-105.21254239999999,1500.0,0.11642532050609589,0.0,0.002934023818440362,1.880941334874289,2.215245008468628,1500.0,0.0,1808.6000000000001,0.6864185929298401,4.675313949584961,0.0,0.0,0.0,26.454891,0.0,-0.3970714211463928,0.0,-0.10475952923297882,0.0,-260.0,-9.686934471130371,18.0,0.001651410717535786,-0.7646405696868896,0.0,,,,,,,
19.200733,1500.0,21.04781150817871,-39.0,0.0,0.0,0.0,0.0,0.0,0.0,26.536588,494.0,39.8422348,-0.20151349902153015,0.2677316963672638,0.0661479786505851,0.32462063431739807,0.0,0.0,0.0,-0.06405358354819189,0.000510497389725688,0.0,-105.2125396,1500.0,0.12012331187725067,0.0,0.003378704101159042,1.8973474298430357,2.237508773803711,1500.0,0.0,1808.57,0.45558688044548035,4.914635181427002,0.0,0.0,0.0,26.554921999999998,0.0,-0.4990221858024597,0.0,0.5098766088485718,0.0,-258.0,-9.41869831085205,18.0,-0.0008409946732165113,-0.7615966796875,0.0,,,,,,,
19.300696000000002,1500.0,21.052001953125,-40.0,0.0,0.0,0.0,0.0,0.0,0.0,26.615802,497.0,39.8422348,-0.2083585262298584,0.26050981879234314,0.06161012259539984,0.31181174516677856,0.0,0.0,0.0,-0.06126105674500097,-0.0007834286517416047,0.0,-105.2125396,1500.0,0.11845429241657257,0.0,0.0026116484285605953,1.909564734606996,2.237508773803711,1500.0,0.0,1808.57,0.28929197788238525,4.914635181427002,0.0,0.0,0.0,26.654885,0.0,-0.5634121298789978,0.0,-0.3258594870567322,0.0,-259.0,-9.426363945007324,18.0,-0.001688772735020131,-0.7629661560058594,0.0,,,,,,,
19.400740999999996,1500.0,21.045717239379883,-42.0,0.0,0.0,0.0,0.0,0.0,0.0,26.735884,497.0,39.8422349,-0.2022390067577362,0.2509295642375946,0.05201081170943102,0.2957909405231476,0.0,0.0,0.0,-0.06265732014659643,0.0005784552335220235,0.0,-105.2125368,1500.0,0.11221946030855179,0.0,0.002310919544916129,1.9235273686229508,2.248640775680542,1500.0,0.0,1808.56,0.38431602716445923,5.153956413269043,0.0,0.0,0.0,26.754929999999998,0.0,-0.5687779784202576,0.0,0.36565953493118286,0.0,-258.0,-9.187447547912598,18.0,-0.0011233076938933495,-0.7670754790306091,0.0,,,,,,,
19.500703,1500.0,21.04967498779297,-43.0,0.0,0.0,0.0,0.0,0.0,0.0,26.815576999999998,499.0,39.8422349,-0.2014865279197693,0.24681441485881805,0.04939281783143953,0.31224027276039124,0.0,0.0,0.0,-0.0619591884457987,-0.0007872751510113578,0.0,-105.2125368,1500.0,0.12377935647964478,0.0,0.0015291410647679377,1.9312068173317258,2.248640775680542,1500.0,0.0,1808.56,0.7005850076675415,5.153956413269043,0.0,0.0,0.0,26.854892,0.0,-0.5634121298789978,0.0,0.7309854030609131,0.0,-259.0,-9.146100044250488,18.0,0.0004464876692416786,-0.7646405696868896,0.0,,,,,,,
19.600732,1500.0,21.049907684326172,-43.0,0.0,0.0,0.0,0.0,0.0,0.0,26.935848999999997,493.0,39.842234999999995,-0.18520669639110565,0.24298128485679626,0.05445427266222309,0.29278773069381714,0.0,0.0,0.0,-0.06492624817418906,-0.00020584695911400215,0.0,-105.21253399999999,1500.0,0.16948182880878448,0.0,0.001640973154642412,1.9374900026389053,2.259772539138794,1500.0,0.0,1808.55,0.5634127855300903,5.393277645111084,0.0,0.0,0.0,26.954921,0.0,-0.5473146438598633,0.0,0.30238959193229675,0.0,-264.0,-9.7118558883667,18.0,0.0008136070262523536,-0.7629661560058594,0.0,,,,,,,
19.700811,1500.0,21.050954818725586,-49.0,0.0,0.0,0.0,0.0,0.0,0.0,27.015556999999998,494.0,39.842234999999995,-0.2101069539785385,0.23992781341075897,0.05689773361501515,0.27931520342826843,0.0,0.0,0.0,-0.06370451769779303,-0.00011589309357126136,0.0,-105.21253399999999,1500.0,0.18928445875644684,0.0,0.001820368262978273,1.9420278586940904,2.259772539138794,1500.0,0.0,1808.55,0.5226554870605469,5.393277645111084,0.0,0.0,0.0,27.055,0.0,-0.6170704364776611,0.0,0.3936455249786377,0.0,-259.0,-9.610190391540527,18.0,-0.0006486894753775708,-0.7629661560058594,0.0,,,,,,,
19.800731999999996,1500.0,21.049907684326172,-48.0,0.0,0.0,0.0,0.0,0.0,0.0,27.135877999999998,496.0,39.842234999999995,-0.2018466293811798,0.23474308848381042,0.05166174585903215,0.2802768647670746,0.0,0.0,0.0,-0.0614355896702004,-0.0011270289673755173,0.0,-105.212531,1500.0,0.2458924949169159,0.0,0.0023337192207093793,1.9533724988320535,2.259772539138794,1500.0,0.0,1808.56,0.740843653678894,5.649693489074707,0.0,0.0,0.0,27.154920999999998,0.0,-0.5795096158981323,0.0,-0.12382060289382935,0.0,-259.0,-9.355758666992188,18.0,-0.001598550220826778,-0.7657055258750916,0.0,,,,,,,
19.900681999999996,1500.0,21.04967498779297,-46.0,0.0,0.0,0.0,0.0,0.0,0.0,27.215473,495.0,39.842234999999995,-0.22239726781845093,0.2325146347284317,0.04590215932745086,0.26115840673446655,0.0,0.0,0.0,-0.06318091892219473,0.0003332309572323232,0.0,-105.212531,1500.0,0.27770695090293884,0.0,0.002875291233579757,1.9624482109424242,2.259772539138794,1500.0,0.0,1808.56,0.5709629058837891,5.649693489074707,0.0,0.0,0.0,27.254870999999998,0.0,-0.6224362850189209,0.0,0.017635129392147064,0.0,-262.0,-8.422087669372559,18.0,-0.0007504981057029756,-0.7631181478500366,0.0,,,,,,,
20.000723999999998,1500.0,21.052001953125,-46.0,0.0,0.0,0.0,0.0,0.0,0.0,27.335815,499.0,39.842234999999995,-0.2024119645357132,0.23159478604793549,0.04485496177625427,0.2540379762649536,0.0,0.0,0.0,-0.061784655520599266,-0.00012309428343448598,0.0,-105.2125279,1500.0,0.27122634649276733,0.0,0.002076453698218522,1.9758872461827806,2.259772539138794,1500.0,0.0,1808.55,-0.0279349684715271,5.914656639099121,0.0,0.0,0.0,27.354913,0.0,-0.47755885124206543,0.0,0.3759208917617798,0.0,-261.0,-8.660238265991211,18.0,0.001315251648494583,-0.7657055258750916,0.0,,,,,,,
20.100693999999997,1500.0,21.052001953125,-53.0,0.0,0.0,0.0,0.0,0.0,0.0,27.415906999999997,494.0,39.842234999999995,-0.1854824721813202,0.2313457876443863,0.05183627878423159,0.24204756319522858,0.0,0.0,0.0,-0.06265732014659643,0.0005414698036605725,0.0,-105.2125279,1500.0,0.2539375126361847,0.0,0.0019733240853768296,1.9805996351631652,2.259772539138794,1500.0,0.0,1808.55,0.47067463397979736,5.914656639099121,0.0,0.0,0.0,27.454883,0.0,-0.4078030586242676,0.0,-0.37610486149787903,0.0,-260.0,-8.588610649108887,18.0,0.0022727089049086463,-0.7629661560058594,0.0,,,,,,,
20.200741,1500.0,21.054096221923828,-59.0,0.0,0.0,0.0,0.0,0.0,0.0,27.536610999999997,495.0,39.8422349,-0.20920264720916748,0.22918671369552612,0.0651007810993885,0.24406838417053223,0.0,0.0,0.0,-0.061086523819801536,-0.00015101687077629565,0.0,-105.21252469999999,1500.0,0.2762173116207123,0.0,0.0017412493620251393,1.989326281423137,2.248640775680542,1500.0,0.0,1808.56,0.39413297176361084,6.188166618347168,0.0,0.0,0.0,27.55493,0.0,-0.37024226784706116,0.0,-0.15015310049057007,0.0,-262.0,-10.024715423583984,18.0,-0.0006849245257922297,-0.764336109161377,0.0,,,,,,,
20.30086,1500.0,21.052001953125,-64.0,0.0,0.0,0.0,0.0,0.0,0.0,27.615907,493.0,39.8422349,-0.21906329691410065,0.22182393074035645,0.058643062867009474,0.25673970580101013,0.0,0.0,0.0,-0.062482787221396996,0.0008527494475484575,0.0,-105.21252469999999,1500.0,0.28154313564300537,0.0,0.0017227947479830558,1.9961330655059148,2.248640775680542,1500.0,0.0,1808.56,0.24808369576931,6.188166618347168,0.0,0.0,0.0,27.655048999999998,0.0,-0.2629256546497345,0.0,0.83644038438797,0.0,-261.0,-9.676551818847656,18.0,-0.002300424505596885,-0.7631181478500366,0.0,,,,,,,
20.400776999999998,1500.0,21.048858642578125,-59.0,0.0,0.0,0.0,0.0,0.0,0.0,27.735927,495.0,39.8422348,-0.22747258841991425,0.20672042667865753,0.04345869837465881,0.25297582149505615,0.0,0.0,0.0,-0.06265732014659643,0.00018078486425651954,0.0,-105.2125216,1500.0,0.26679497957229614,0.0,0.001197854098097926,2.0031143825138917,2.237508773803711,1500.0,0.0,1808.54,-0.47689372301101685,6.453129291534424,0.0,0.0,0.0,27.754966,0.0,-0.4614613652229309,0.0,0.8125444054603577,0.0,-259.0,-9.618797302246094,18.0,-0.001439614899580316,-0.7657055258750916,0.0,,,,,,,
20.500771,1500.0,21.049907684326172,-54.0,0.0,0.0,0.0,0.0,0.0,0.0,27.815634,497.0,39.8422348,-0.19017282128334045,0.19678588211536407,0.041713369122664476,0.26570409536361694,0.0,0.0,0.0,-0.0603883921190038,-0.0008311348004179944,0.0,-105.2125216,1500.0,0.25021490454673767,0.0,0.0005081613371181328,2.0057323763918835,2.237508773803711,1500.0,0.0,1808.54,-0.16174833476543427,6.453129291534424,0.0,0.0,0.0,27.85496,0.0,-0.2843889892101288,0.0,0.2878536880016327,0.0,-260.0,-9.559536933898926,18.0,0.000955982634990162,-0.764336109161377,0.0,,,,,,,
20.600754000000002,1500.0,21.049907684326172,-64.0,0.0,0.0,0.0,0.0,0.0,0.0,27.935841,501.0,39.842234499999996,-0.18289412558078766,0.1829598844051361,0.05131268000863329,0.275489866733551,0.0,0.0,0.0,-0.05969026041820607,-0.0005722501852155852,0.0,-105.2125183,1500.0,0.25156205892562866,0.0,0.001177525518505592,2.0074777056438777,2.204113245010376,1500.0,0.0,1808.51,0.48837924003601074,6.735186576843262,0.0,0.0,0.0,27.954943,0.0,-0.3648764491081238,0.0,-0.008398371748626232,0.0,-259.0,-9.319174766540527,18.0,0.0005404008981839879,-0.764336109161377,0.0,,,,,,,
20.700696,1500.0,21.05549430847168,-64.0,0.0,0.0,0.0,0.0,0.0,0.0,28.015563999999998,497.0,39.842234499999996,-0.22724959254264832,0.17206168174743652,0.050265482457436686,0.29312652349472046,0.0,0.0,0.0,-0.0603883921190038,-0.0003957441125212423,0.0,-105.2125183,1500.0,0.2406879961490631,0.0,0.0006870705941052239,2.0085249031950743,2.204113245010376,1500.0,0.0,1808.51,-0.1059415265917778,6.735186576843262,0.0,0.0,0.0,28.054885,0.0,-0.4239005744457245,0.0,0.27849721908569336,0.0,-260.0,-9.367507934570312,18.0,-0.0002614329209686207,-0.7631181478500366,0.0,,,,,,,
20.800689,1500.0,21.048858642578125,-67.0,0.0,0.0,0.0,0.0,0.0,0.0,28.135844,493.0,39.8422342,-0.22506429255008698,0.15311077237129211,0.047647488579445195,0.32496821880340576,0.0,0.0,0.0,-0.06161012259539984,-0.0006872500453896141,0.0,-105.212515,1500.0,0.23802119493484497,0.0,0.0008569399601318729,2.0095721007462712,2.170717477798462,1500.0,0.0,1808.5,0.14691010117530823,7.017244338989258,0.0,0.0,0.0,28.154878,0.0,-0.45072972774505615,0.0,-0.27877697348594666,0.0,-260.0,-9.014450073242188,18.0,-0.00017963848914031514,-0.7684448957443237,0.0,,,,,,,
20.900729999999996,1500.0,21.049907684326172,-68.0,0.0,0.0,0.0,0.0,0.0,0.0,28.215567,494.0,39.8422342,-0.2473626285791397,0.14217862486839294,0.04799655442984406,0.3432704508304596,0.0,0.0,0.0,-0.06300638599699529,0.00017388855464833686,0.0,-105.212515,1500.0,0.20001335442066193,0.0,0.0017834084504378545,2.0116664958486643,2.170717477798462,1500.0,0.0,1808.5,-0.105738565325737,7.017244338989258,0.0,0.0,0.0,28.254918999999997,0.0,-0.45072972774505615,0.0,-0.2068907618522644,0.0,-260.0,-8.39307689666748,18.0,0.0011487296991076225,-0.764336109161377,0.0,,,,,,,
21.000729999999997,1500.0,21.049907684326172,-74.0,0.0,0.0,0.0,0.0,0.0,0.0,28.33587,493.0,39.842234,-0.22009976208209991,0.1288285106420517,0.05846852994181004,0.3667180836200714,0.0,0.0,0.0,-0.0619591884457987,0.0006187555057139314,0.0,-105.2125118,1500.0,0.1593928188085556,0.0,0.0017129186855577953,2.019695010407838,2.148453712463379,1500.0,0.0,1808.5,0.18066419661045074,7.290754318237305,0.0,0.0,0.0,28.354919,0.0,-0.3058522939682007,0.0,-0.32733577489852905,0.0,-257.0,-8.95056438446045,18.0,0.0023367480463006942,-0.764336109161377,0.0,,,,,,,
21.100709000000002,1500.0,21.05432891845703,-83.0,0.0,0.0,0.0,0.0,0.0,0.0,28.415917999999998,490.0,39.842234,-0.20841436088085175,0.12052691727876663,0.06946410422937431,0.39908960461616516,0.0,0.0,0.0,-0.06422811647339133,-0.0005455754669953905,0.0,-105.2125118,1500.0,0.14568626880645752,0.0,0.0014277282025469105,2.0237092676874253,2.148453712463379,1500.0,0.0,1808.5,0.37248021364212036,7.290754318237305,0.0,0.0,0.0,28.454898,0.0,-0.4829246997833252,0.0,0.10210378468036652,0.0,-258.0,-10.419000625610352,18.0,0.0020386247172832746,-0.7631181478500366,0.0,,,,,,,
21.200727,1500.0,21.050954818725586,-86.0,0.0,0.0,0.0,0.0,0.0,0.0,28.536555999999997,494.0,39.8422337,-0.2350558638572693,0.10481469333171844,0.07400196028455958,0.4119199812412262,0.0,0.0,0.0,-0.06667157742618339,-0.00044062364339416283,0.0,-105.21250889999999,1500.0,0.12657643854618073,0.0,0.0012868841715102228,2.0310396505458015,2.115057945251465,1500.0,0.0,1808.51,0.6165482401847839,7.538622856140137,0.0,0.0,0.0,28.554916,0.0,-0.28975480794906616,0.0,0.7762368321418762,0.0,-261.0,-8.630386352539062,18.0,-0.0012520650307405506,-0.7629661560058594,0.0,,,,,,,
21.300710000000002,1500.0,21.050954818725586,-83.0,0.0,0.0,0.0,0.0,0.0,0.0,28.615934,487.0,39.8422337,-0.2752801477909088,0.09463103860616684,0.06702064327658225,0.39953482151031494,0.0,0.0,0.0,-0.0661479786505851,-0.00020187482769053064,0.0,-105.21250889999999,1500.0,0.11142832040786743,0.0,0.0003980672914496998,2.033308578573394,2.115057945251465,1500.0,0.0,1808.51,0.19089367985725403,7.538622856140137,0.0,0.0,0.0,28.654899,0.0,-0.25219401717185974,0.0,-0.3844327926635742,0.0,-259.0,-9.075730323791504,18.0,-0.0013852388197411873,-0.7615966796875,0.0,,,,,,,
21.40074,1500.0,21.045717239379883,-77.0,0.0,0.0,0.0,0.0,0.0,0.0,28.735902,493.0,39.8422334,-0.26205766201019287,0.07410506904125214,0.05969026041820607,0.41554129123687744,0.0,0.0,0.0,-0.06876597252857658,0.0011362376790823069,0.0,-105.2125061,1500.0,0.09550313651561737,0.0,-0.00044355663159664023,2.0313887163962003,2.08166241645813,1500.0,0.0,1808.49,0.29492735862731934,7.777944564819336,0.0,0.0,0.0,28.754928999999997,0.0,-0.5741438269615173,0.0,0.5314449667930603,0.0,-260.0,-8.817161560058594,18.0,0.00037333367046494864,-0.7711843252182007,0.0,,,,,,,
21.500729,1500.0,21.052001953125,-77.0,0.0,0.0,0.0,0.0,0.0,0.0,28.815555,494.0,39.8422334,-0.2419477254152298,0.06364484131336212,0.0619591884457987,0.453470379114151,0.0,0.0,0.0,-0.06771877497737998,-0.00035042326802774284,0.0,-105.2125061,1500.0,0.11059422045946121,0.0,-0.0002865817506135585,2.0275489920418126,2.08166241645813,1500.0,0.0,1808.49,0.624228298664093,7.777944564819336,0.0,0.0,0.0,28.854917999999998,0.0,-0.2790231704711914,0.0,0.16998016834259033,0.0,-260.0,-9.197422981262207,18.0,0.001476389149089702,-0.7646405696868896,0.0,,,,,,,
21.60073,1500.0,21.049907684326172,-78.0,0.0,0.0,0.0,0.0,0.0,0.0,28.935848,494.0,39.842233,-0.24761497974395752,0.05011652410030365,0.06806784082777885,0.4693886637687683,0.0,0.0,0.0,-0.06946410422937431,-0.0009681186132642746,0.0,-105.21250339999999,1500.0,0.1543916016817093,0.0,-0.0002972252273539121,2.023011135986627,2.037134885787964,1500.0,0.0,1808.5,0.08410604298114777,8.00871753692627,0.0,0.0,0.0,28.954919,0.0,-0.47219303250312805,0.0,0.22108951210975647,0.0,-259.0,-9.884055137634277,18.0,0.00020104910796265628,-0.7629661560058594,0.0,,,,,,,
21.700724,1500.0,21.05304718017578,-79.0,0.0,0.0,0.0,0.0,0.0,0.0,29.015565,493.0,39.842233,-0.269541472196579,0.03956424072384834,0.06736970912698112,0.47244352102279663,0.0,0.0,0.0,-0.06911503837897545,-0.0003519782849274225,0.0,-105.21250339999999,1500.0,0.13962173461914062,0.0,-0.0002365112012281664,2.021265806734633,2.037134885787964,1500.0,0.0,1808.5,0.20310130715370178,8.00871753692627,0.0,0.0,0.0,29.054913,0.0,-0.3058522939682007,0.0,-0.327642560005188,0.0,-258.0,-9.484406471252441,18.0,-0.0013084732013196533,-0.764336109161377,0.0,,,,,,,
21.800776,1500.0,21.04676628112793,-72.0,0.0,0.0,0.0,0.0,0.0,0.0,29.136053999999998,492.0,39.842232599999996,-0.2726757526397705,0.023651279509067535,0.060039326268604934,0.4947092533111572,0.0,0.0,0.0,-0.06771877497737998,5.416773998633432e-05,0.0,-105.2125006,1500.0,0.1213257759809494,0.0,-0.00137534793307939,2.015157154352653,1.9926073551177979,1500.0,0.0,1808.52,0.08601658046245575,8.248039245605469,0.0,0.0,0.0,29.154964999999997,0.0,-0.26829150319099426,0.0,-0.5244560241699219,0.0,-258.0,-8.650506973266602,18.0,-0.00022875024201655556,-0.7657055258750916,0.0,,,,,,,
21.900745,1500.0,21.04850959777832,-74.0,0.0,0.0,0.0,0.0,0.0,0.0,29.215646999999997,489.0,39.842232599999996,-0.26435381174087524,0.012914898805320263,0.059341194567807204,0.5239633321762085,0.0,0.0,0.0,-0.07190756518216639,0.0009482365162697331,0.0,-105.2125006,1500.0,0.09449061006307602,0.0,-0.0026845995368543762,2.00381251421469,1.9926073551177979,1500.0,0.0,1808.52,-0.12772059440612793,8.248039245605469,0.0,0.0,0.0,29.254934,0.0,-0.3809739351272583,0.0,0.12685880064964294,0.0,-259.0,-9.01543140411377,18.0,0.0012014840854919476,-0.7631181478500366,0.0,,,,,,,
22.000738,1500.0,21.049907684326172,-73.0,0.0,0.0,0.0,0.0,0.0,0.0,29.335919999999998,490.0,39.8422321,-0.22114653885364532,-0.0015398433897644281,0.0645771823237902,0.578075647354126,0.0,0.0,0.0,-0.07347836150896127,-0.00045379250685081924,0.0,-105.21249789999999,1500.0,0.06880363076925278,0.0,-0.004139498484378225,1.9786797729859715,1.9369479417800903,1500.0,0.0,1808.52,-0.8679782152175903,8.478814125061035,0.0,0.0,0.0,29.354927,0.0,-0.4668272137641907,0.0,0.2711447477340698,0.0,-261.0,-10.060803413391113,18.0,0.0011488785916588013,-0.7629661560058594,0.0,,,,,,,
22.10073,1500.0,21.04781150817871,-72.0,0.0,0.0,0.0,0.0,0.0,0.0,29.415930999999997,486.0,39.8422321,-0.2670128643512726,-0.009336794726550579,0.07120943348136864,0.6283683776855469,0.0,0.0,0.0,-0.07208209810736581,-0.0006999852349089945,0.0,-105.21249789999999,1500.0,0.005876798648387194,0.0,-0.004316516253307405,1.9584339536628372,1.9369479417800903,1500.0,0.0,1808.52,-0.06687629967927933,8.478814125061035,0.0,0.0,0.0,29.454919,0.0,-0.47219303250312805,0.0,-0.11797399073839188,0.0,-261.0,-9.256179809570312,18.0,-0.000991857092352927,-0.7629661560058594,0.0,,,,,,,
22.200721,1500.0,21.04781150817871,-64.0,0.0,0.0,0.0,0.0,0.0,0.0,29.536579,490.0,39.8422317,-0.28801724314689636,-0.021036742255091667,0.06335545184739416,0.6698477864265442,0.0,0.0,0.0,-0.07330382858376185,0.00132425230074121,0.0,-105.2124954,1500.0,-0.05092722177505493,0.0,-0.005675255579905003,1.924050967398549,1.8924204111099243,1500.0,0.0,1808.51,-0.052130330353975296,8.692493438720703,0.0,0.0,0.0,29.55491,0.0,-0.2575598359107971,0.0,0.028319818899035454,0.0,-259.0,-9.226906776428223,18.0,-0.001029966888540812,-0.7684448957443237,0.0,,,,,,,
22.300713000000002,1500.0,21.053165435791016,-54.0,0.0,0.0,0.0,0.0,0.0,0.0,29.6159,489.0,39.8422317,-0.2802971303462982,-0.029734769836068153,0.05445427266222309,0.7352103590965271,0.0,0.0,0.0,-0.07487462491055674,0.00030093265187826286,0.0,-105.2124954,1500.0,-0.07372619956731796,0.0,-0.006841051226195287,1.8945549030398448,1.8924204111099243,1500.0,0.0,1808.51,-0.35996583104133606,8.692493438720703,0.0,0.0,0.0,29.654902,0.0,-0.5902413129806519,0.0,0.08839985728263855,0.0,-255.0,-9.299440383911133,18.0,-0.0007773210012699548,-0.7631181478500366,0.0,,,,,,,
22.400717,1500.0,21.045717239379883,-44.0,0.0,0.0,0.0,0.0,0.0,0.0,29.735878,493.0,39.842231399999996,-0.25649499893188477,-0.0398172065615654,0.046774823953448036,0.7840412855148315,0.0,0.0,0.0,-0.0747000919853573,-0.00043781604352572393,0.0,-105.212493,1500.0,-0.10327581316232681,0.0,-0.00842332157448733,1.8425440913304139,1.8590247631072998,1500.0,0.0,1808.5,-0.24940145015716553,8.897626876831055,0.0,0.0,0.0,29.754906,0.0,-0.45072972774505615,0.0,-0.20889829099178314,0.0,-256.0,-9.71757984161377,18.0,-0.00014207588933265724,-0.7684448957443237,0.0,,,,,,,
