time_index,servos_7,tx_controls_4,acceleration_x,global_position_longitude,tx_controls_1,time_actual,tx_controls_7,airspeed_0,acceleration_z,battery_0,magnetometer_0,tx_controls_2,position_y,wind_y,global_position_latitude,magnetometer_1,magnetometer_2,attitude_yaw,velocity_x,servos_2,servos_6,position_x,mode_1,attitude_roll,servos_1,velocity_y,servos_4,time_flight,mode_0,axis_rate_pitch,position_z,tx_controls_6,servos_5,axis_rate_yaw,servos_0,servos_3,axis_rate_roll,wind_x,mode_2,tx_controls_3,gps_sat_count_0,velocity_z,tx_controls_5,altitude_baro,tx_controls_0,current_0,acceleration_y,altitude_gps,attitude_pitch,current_3,airspeed_1,current_2,current_1,rpm_0,rpm_1,battery_1
0.0,0.0,0.0,1.1674751043319702,0.0,1500.0,7.0925329999999995,0.0,0.0,-9.154581069946289,20.723129272460938,92.0,0.0,0.0,0.0,0.0,-80.0,490.0,0.0,0.0,0.0,0.0,0.0,0.0,0.0005235987755982988,0.0,0.0,0.0,7.11212,0.0,2.374534667630224e-05,0.0,0.0,0.0,-0.00011150559094114992,0.0,0.0,0.00020652391632786037,0.0,0.0,1500.0,0.0,0.0,0.0,-1.5356948375701904,1500.0,-0.867058277130127,-0.1482103019952774,-17.0,0.01064650843716541,,,,,,,
0.1000949999999996,0.0,0.0,1.1676719188690186,0.0,1500.0,7.172511,0.0,0.0,-9.135414123535156,20.72417640686035,94.0,0.0,0.0,0.0,0.0,-80.0,493.0,0.0,0.0,0.0,0.0,0.0,0.0,0.0005235987755982988,0.0,0.0,0.0,7.212215,0.0,2.338960157237645e-05,0.0,0.0,0.0,6.163051992043855e-05,0.0,0.0,-0.0002930041885465759,0.0,0.0,1500.0,0.0,0.0,0.0,-1.5196980237960815,1500.0,-0.86431884765625,-0.11862464994192123,-17.0,0.01064650843716541,,,,,,,
0.20000899999999966,0.0,0.0,1.141281247138977,0.0,1500.0,7.292491,0.0,0.0,-9.171828269958496,20.713703155517578,97.0,0.0,0.0,0.0,0.0,-79.0,496.0,0.0,0.0,0.0,0.0,0.0,0.0,0.0005235987755982988,0.0,0.0,0.0,7.312129,0.0,3.516670419946511e-06,0.0,0.0,0.0,-5.075254147563981e-05,0.0,0.0,0.00015215622388571956,0.0,0.0,1500.0,0.0,0.0,0.0,-1.5037012100219727,1500.0,-0.8656883239746094,-0.2478744238615036,-17.0,0.01064650843716541,,,,,,,
0.3001119999999995,0.0,0.0,1.2048512697219849,0.0,1500.0,7.372491999999999,0.0,0.0,-9.09328556060791,20.777360916137695,95.0,0.0,0.0,0.0,0.0,-79.0,497.0,0.0,0.0,0.0,0.0,0.0,0.0,0.0005235987755982988,0.0,0.0,0.0,7.4122319999999995,0.0,1.068314823410034e-05,0.0,0.0,0.0,3.477917872414024e-05,0.0,0.0,-5.4340604075706386e-05,0.0,0.0,1500.0,0.0,0.0,0.0,-1.381058931350708,1500.0,-0.8696456551551819,-0.0353524312376976,-17.0,0.01064650843716541,,,,,,,
0.4000219999999999,0.0,0.0,1.1095807552337646,0.0,1500.0,7.493113999999999,0.0,0.0,-9.166624069213867,20.78597068786621,89.0,0.0,0.0,0.0,0.0,-73.0,496.0,0.0,0.0,0.0,0.0,0.0,0.0,0.0005235987755982988,0.0,0.0,0.0,7.512142,0.0,-3.0599826986571193e-06,0.0,0.0,0.0,2.0225472313374834e-06,0.0,0.0,-2.647782671728609e-07,0.0,0.0,1500.0,0.0,0.0,0.0,-1.4183849096298218,1500.0,-0.867058277130127,-0.2746291160583496,-17.0,0.01064650843716541,,,,,,,
0.5000139999999993,0.0,0.0,1.2022294998168945,0.0,1500.0,7.5731329999999994,0.0,0.0,-9.112817764282227,20.774450302124023,90.0,0.0,0.0,0.0,0.0,-76.0,492.0,0.0,0.0,0.0,0.0,0.0,0.0,0.0005235987755982988,0.0,0.0,0.0,7.612133999999999,0.0,1.4739800765516849e-05,0.0,0.0,0.0,-3.4940786471624615e-05,0.0,0.0,8.86107198175523e-05,0.0,0.0,1500.0,0.0,0.0,0.0,-1.4130525588989258,1500.0,-0.867058277130127,-0.05000046640634537,-17.0,0.01064650843716541,,,,,,,
0.5999889999999999,0.0,0.0,1.1370024681091309,0.0,1500.0,7.692494,0.0,0.0,-9.170370101928711,20.75874137878418,90.0,0.0,0.0,0.0,0.0,-78.0,492.0,0.0,0.0,0.0,0.0,0.0,0.0,0.0005235987755982988,0.0,0.0,0.0,7.712109,0.0,8.21096500377743e-06,0.0,0.0,0.0,2.498047012415151e-05,0.0,0.0,-0.00017694120954969833,0.0,0.0,1500.0,0.0,0.0,0.0,-1.455710768699646,1500.0,-0.867058277130127,-0.20794892311096191,-17.0,0.01064650843716541,,,,,,,
0.6999949999999995,0.0,0.0,1.1796729564666748,0.0,1500.0,7.7724839999999995,0.0,0.0,-9.139904022216797,20.75292205810547,91.0,0.0,0.0,0.0,0.0,-76.0,492.0,0.0,0.0,0.0,0.0,0.0,0.0,0.0005235987755982988,0.0,0.0,0.0,7.8121149999999995,0.0,9.404653328862127e-06,0.0,0.0,0.0,-7.049456000043016e-05,0.0,0.0,9.920024739007155e-05,0.0,0.0,1500.0,0.0,0.0,0.0,-1.4023879766464233,1500.0,-0.8666017651557922,-0.1501636505126953,-17.0,0.01064650843716541,,,,,,,
0.8000089999999993,0.0,0.0,1.1684972047805786,0.0,1500.0,7.892493999999999,0.0,0.0,-9.124588966369629,20.73360252380371,94.0,0.0,0.0,0.0,0.0,-81.0,502.0,0.0,0.0,0.0,0.0,0.0,0.0,0.0005235987755982988,0.0,0.0,0.0,7.912128999999999,0.0,8.947237450257933e-06,0.0,0.0,0.0,4.735703140409544e-05,0.0,0.0,-0.00013623119025843312,0.0,0.0,1500.0,0.0,0.0,0.0,-1.4770398139953613,1500.0,-0.867058277130127,-0.12581737339496613,-17.0,0.01064650843716541,,,,,,,
0.8999359999999994,0.0,0.0,1.1556644439697266,0.0,1500.0,7.972496,0.0,0.0,-9.168427467346191,20.8027286529541,91.0,0.0,0.0,0.0,0.0,-78.0,498.0,0.0,0.0,0.0,0.0,0.0,0.0,0.0005235987755982988,0.0,0.0,0.0,8.012056,0.0,2.5208440508921976e-06,0.0,0.0,0.0,-4.262262619711511e-05,0.0,0.0,9.168042584185989e-05,0.0,0.0,1500.0,0.0,0.0,0.0,-1.3597298860549927,1500.0,-0.8656883239746094,-0.22642487287521362,-17.0,0.01064650843716541,,,,,,,
1.0000150000000003,0.0,0.0,1.1802561283111572,0.0,1500.0,8.092494,0.0,0.0,-9.108501434326172,20.834383010864258,91.0,0.0,0.0,0.0,0.0,-82.0,499.0,0.0,0.0,0.0,0.0,0.0,0.0,0.0005235987755982988,0.0,0.0,0.0,8.112135,0.0,2.316001740609979e-06,0.0,0.0,0.0,1.163464437567036e-05,0.0,0.0,-4.360686935352339e-05,0.0,0.0,1500.0,0.0,0.0,0.0,-1.4290493726730347,1500.0,-0.8650798201560974,-0.08338496834039688,-17.0,0.01064650843716541,,,,,,,
1.0999879999999989,0.0,0.0,1.1319884061813354,0.0,1500.0,8.17253,0.0,0.0,-9.159503936767578,20.832054138183594,94.0,0.0,0.0,0.0,0.0,-81.0,495.0,0.0,0.0,0.0,0.0,0.0,0.0,0.0005235987755982988,0.0,0.0,0.0,8.212107999999999,0.0,-1.2902996382225653e-05,0.0,0.0,0.0,1.3105254965837665e-05,0.0,0.0,-1.9945835522522916e-05,0.0,0.0,1500.0,0.0,0.0,0.0,-1.1997616291046143,1500.0,-0.86431884765625,-0.20247924327850342,-17.0,0.01064650843716541,,,,,,,
1.2000099999999998,0.0,0.0,1.1711448431015015,0.0,1500.0,8.292511,0.0,0.0,-9.122008323669434,20.83310317993164,91.0,0.0,0.0,0.0,0.0,-82.0,493.0,0.0,0.0,0.0,0.0,0.0,0.0,0.0005235987755982988,0.0,0.0,0.0,8.31213,0.0,7.526534716730959e-06,0.0,0.0,0.0,-1.4088781901936306e-05,0.0,0.0,3.17473135141497e-05,0.0,0.0,1500.0,0.0,0.0,0.0,-1.3170716762542725,1500.0,-0.86431884765625,-0.09679830074310303,-17.0,0.01064650843716541,,,,,,,
1.2999850000000004,0.0,0.0,1.164790391921997,0.0,1500.0,8.372503,0.0,0.0,-9.162372589111328,20.83519744873047,93.0,0.0,0.0,0.0,0.0,-82.0,495.0,0.0,0.0,0.0,0.0,0.0,0.0,0.0005235987755982988,0.0,0.0,0.0,8.412105,0.0,8.149190748092043e-06,0.0,0.0,0.0,9.877186027618747e-06,0.0,0.0,-0.00013929320783550187,0.0,0.0,1500.0,0.0,0.0,0.0,-1.322403907775879,1500.0,-0.8656883239746094,-0.18755371868610382,-17.0,0.01064650843716541,,,,,,,
1.4000110000000001,0.0,0.0,1.1642212867736816,0.0,1500.0,8.493008999999999,0.0,0.0,-9.137884140014648,20.83903694152832,93.0,0.0,0.0,0.0,0.0,-79.0,495.0,0.0,0.0,0.0,0.0,0.0,0.0,0.0005235987755982988,0.0,0.0,0.0,8.512131,0.0,-5.711313962643284e-06,0.0,0.0,0.0,-5.1154778928856974e-05,0.0,0.0,3.812075994615696e-05,0.0,0.0,1500.0,0.0,0.0,0.0,-1.5676885843276978,1500.0,-0.8574706315994263,-0.16519473493099213,-17.0,0.01064650843716541,,,,,,,
1.499992999999999,0.0,0.0,1.161616563796997,0.0,1500.0,8.573017,0.0,0.0,-9.128917694091797,20.83310317993164,93.0,0.0,0.0,0.0,0.0,-79.0,494.0,0.0,0.0,0.0,0.0,0.0,0.0,0.0005235987755982988,0.0,0.0,0.0,8.612112999999999,0.0,1.2489859173402611e-05,0.0,0.0,0.0,1.5605773090708377e-05,0.0,0.0,-7.874786429161837e-05,0.0,0.0,1500.0,0.0,0.0,0.0,-1.397055745124817,1500.0,-0.8684276938438416,-0.1331193596124649,-17.0,0.01064650843716541,,,,,,,
1.6000009999999998,0.0,0.0,1.1560803651809692,0.0,1500.0,8.692515,0.0,0.0,-9.157845497131348,20.839385986328125,90.0,0.0,0.0,0.0,0.0,-79.0,493.0,0.0,0.0,0.0,0.0,0.0,0.0,0.0005235987755982988,0.0,0.0,0.0,8.712121,0.0,5.112713282490483e-06,0.0,0.0,0.0,-7.767712000828144e-06,0.0,0.0,3.9673322394392545e-05,0.0,0.0,1500.0,0.0,0.0,0.0,-1.2850780487060547,1500.0,-0.8588400483131409,-0.19978904724121094,-17.0,0.01064650843716541,,,,,,,
1.699979,0.0,0.0,1.1607775688171387,0.0,1500.0,8.772506,0.0,0.0,-9.12413215637207,20.82577133178711,93.0,0.0,0.0,0.0,0.0,-81.0,496.0,0.0,0.0,0.0,0.0,0.0,0.0,0.0005235987755982988,0.0,0.0,0.0,8.812099,0.0,-5.812067873733811e-06,0.0,0.0,0.0,1.1883588332486986e-05,0.0,0.0,6.633062579395206e-06,0.0,0.0,1500.0,0.0,0.0,0.0,-1.3010748624801636,1500.0,-0.86431884765625,-0.11726826429367065,-17.0,0.01064650843716541,,,,,,,
1.800109,0.0,0.0,1.1217193603515625,0.0,1500.0,8.892484999999999,0.0,0.0,-9.166502952575684,20.808780670166016,92.0,0.0,0.0,0.0,0.0,-81.0,498.0,0.0,0.0,0.0,0.0,0.0,0.0,0.0005235987755982988,0.0,0.0,0.0,8.912229,0.0,1.4962724082913843e-05,0.0,0.0,0.0,5.792499820550614e-06,0.0,0.0,-2.269980318871133e-05,0.0,0.0,1500.0,0.0,0.0,0.0,-1.4023879766464233,1500.0,-0.8620359301567078,-0.1841120719909668,-17.0,0.01064650843716541,,,,,,,
1.8999329999999999,0.0,0.0,1.1640918254852295,0.0,1500.0,8.972489,0.0,0.0,-9.151508331298828,20.81739044189453,93.0,0.0,0.0,0.0,0.0,-82.0,500.0,0.0,0.0,0.0,0.0,0.0,0.0,0.0005235987755982988,0.0,0.0,0.0,9.012053,0.0,2.0343821370072212e-06,0.0,0.0,0.0,-3.333167208047203e-05,0.0,0.0,8.572734485626872e-06,0.0,0.0,1500.0,0.0,0.0,0.0,-1.253084421157837,1500.0,-0.86431884765625,-0.14515313506126404,-17.0,0.01064650843716541,,,,,,,
2.0000899999999993,0.0,0.0,1.167112112045288,0.0,1500.0,9.092490999999999,0.0,0.0,-9.15317153930664,20.81215476989746,93.0,0.0,0.0,0.0,0.0,-81.0,498.0,0.0,0.0,0.0,0.0,0.0,0.0,0.0005235987755982988,0.0,0.0,0.0,9.11221,0.0,8.027937697415784e-06,0.0,0.0,0.0,-3.218015440085287e-06,0.0,0.0,-9.514752543507773e-05,0.0,0.0,1500.0,0.0,0.0,0.0,-1.3384007215499878,1500.0,-0.86431884765625,-0.15985068678855896,-17.0,0.01064650843716541,,,,,,,
2.0999489999999996,0.0,0.0,1.1516790390014648,0.0,1500.0,9.172511,0.0,0.0,-9.153589248657227,20.8027286529541,95.0,0.0,0.0,0.0,0.0,-78.0,496.0,0.0,0.0,0.0,0.0,0.0,0.0,0.0005235987755982988,0.0,0.0,0.0,9.212069,0.0,8.116323855244508e-06,0.0,0.0,0.0,-3.331090880289976e-05,0.0,0.0,-3.0580189343187696e-05,0.0,0.0,1500.0,0.0,0.0,0.0,-1.2744134664535522,1500.0,-0.8656883239746094,-0.193674236536026,-17.0,0.01064650843716541,,,,,,,
2.200012,0.0,0.0,1.1780191659927368,0.0,1500.0,9.292487,0.0,0.0,-9.13647747039795,20.797142028808594,93.0,0.0,0.0,0.0,0.0,-78.0,496.0,0.0,0.0,0.0,0.0,0.0,0.0,0.0005235987755982988,0.0,0.0,0.0,9.312132,0.0,1.3529178147749304e-06,0.0,0.0,0.0,1.757498578298791e-05,0.0,0.0,-3.1188834378236134e-05,0.0,0.0,1500.0,0.0,0.0,0.0,-1.3330684900283813,1500.0,-0.8620359301567078,-0.1202784925699234,-17.0,0.01064650843716541,,,,,,,
2.2999459999999994,0.0,0.0,1.150124192237854,0.0,1500.0,9.372499999999999,0.0,0.0,-9.173948287963867,20.73779296875,93.0,0.0,0.0,0.0,0.0,-82.0,497.0,0.0,0.0,0.0,0.0,0.0,0.0,0.0005235987755982988,0.0,0.0,0.0,9.412066,0.0,8.479731500568128e-06,0.0,0.0,0.0,1.1055765659873678e-05,0.0,0.0,-3.5050302144503087e-05,0.0,0.0,1500.0,0.0,0.0,0.0,-1.3863911628723145,1500.0,-0.86431884765625,-0.18835832178592682,-17.0,0.01064650843716541,,,,,,,
2.400075,0.0,0.0,1.1714427471160889,0.0,1500.0,9.492994999999999,0.0,0.0,-9.131610870361328,20.75455093383789,91.0,0.0,0.0,0.0,0.0,-82.0,493.0,0.0,0.0,0.0,0.0,0.0,0.0,0.0005235987755982988,0.0,0.0,0.0,9.512195,0.0,1.1958881881463933e-05,0.0,0.0,0.0,-1.0423871402433555e-05,0.0,0.0,4.014556454136398e-05,0.0,0.0,1500.0,0.0,0.0,0.0,-1.2690812349319458,1500.0,-0.86431884765625,-0.12049927562475204,-17.0,0.01064650843716541,,,,,,,
2.499987999999999,0.0,0.0,1.1629937887191772,0.0,1500.0,9.572996999999999,0.0,0.0,-9.14975357055664,20.76921272277832,94.0,0.0,0.0,0.0,0.0,-83.0,494.0,0.0,0.0,0.0,0.0,0.0,0.0,0.0005235987755982988,0.0,0.0,0.0,9.612108,0.0,5.494534393221545e-06,0.0,0.0,0.0,1.7366934450148136e-05,0.0,0.0,-4.634243269754236e-05,0.0,0.0,1500.0,0.0,0.0,0.0,-1.3437330722808838,1500.0,-0.867058277130127,-0.14480087161064148,-17.0,0.01064650843716541,,,,,,,
2.600001999999999,0.0,0.0,1.1538275480270386,0.0,1500.0,9.69253,0.0,0.0,-9.144979476928711,20.80179786682129,96.0,0.0,0.0,0.0,0.0,-80.0,497.0,0.0,0.0,0.0,0.0,0.0,0.0,0.0005235987755982988,0.0,0.0,0.0,9.712121999999999,0.0,-7.351402088420691e-07,0.0,0.0,0.0,-2.5847364900465247e-05,0.0,0.0,-2.1378460022480586e-06,0.0,0.0,1500.0,0.0,0.0,0.0,-1.2637488842010498,1500.0,-0.8620359301567078,-0.16048550605773926,-17.0,0.01064650843716541,,,,,,,
2.6999009999999997,0.0,0.0,1.1755523681640625,0.0,1500.0,9.772492,0.0,0.0,-9.132222175598145,20.813201904296875,98.0,0.0,0.0,0.0,0.0,-80.0,496.0,0.0,0.0,0.0,0.0,0.0,0.0,0.0005235987755982988,0.0,0.0,0.0,9.812021,0.0,6.047807471012053e-06,0.0,0.0,0.0,-6.020427282898268e-07,0.0,0.0,-7.68281825513907e-05,0.0,0.0,1500.0,0.0,0.0,0.0,-1.2957425117492676,1500.0,-0.8656883239746094,-0.14627498388290405,-17.0,0.01064650843716541,,,,,,,
2.800005999999999,0.0,0.0,1.1664693355560303,0.0,1500.0,9.892495,0.0,0.0,-9.168087005615234,20.77654457092285,94.0,0.0,0.0,0.0,0.0,-77.0,493.0,0.0,0.0,0.0,0.0,0.0,0.0,0.0005235987755982988,0.0,0.0,0.0,9.912125999999999,0.0,1.8880788492372444e-05,0.0,0.0,0.0,-8.45543893312963e-06,0.0,0.0,-4.512477283426434e-05,0.0,0.0,1500.0,0.0,0.0,0.0,-1.3863911628723145,1500.0,-0.86431884765625,-0.1879284381866455,-17.0,0.01064650843716541,,,,,,,
2.900341,0.0,0.0,1.163880705833435,0.0,1500.0,9.972517,0.0,0.0,-9.136960983276367,20.739887237548828,95.0,0.0,0.0,0.0,0.0,-78.0,494.0,0.0,0.0,0.0,0.0,0.0,0.0,0.0005235987755982988,0.0,0.0,0.0,10.012461,0.0,-1.8495979955615796e-07,0.0,0.0,0.0,-4.666124521545865e-06,0.0,0.0,1.3796611509644501e-06,0.0,0.0,1500.0,0.0,0.0,0.0,-1.605014443397522,1500.0,-0.867058277130127,-0.12718097865581512,-17.0,0.01064650843716541,,,,,,,
3.000018999999999,0.0,0.0,1.1514779329299927,0.0,1500.0,10.092789999999999,0.0,0.0,-9.165924072265625,20.750593185424805,91.0,0.0,0.0,0.0,0.0,-78.0,489.0,0.0,0.0,0.0,0.0,0.0,0.0,0.0005235987755982988,0.0,0.0,0.0,10.112138999999999,0.0,2.1843837629548124e-05,0.0,0.0,0.0,2.091555515333314e-05,0.0,0.0,-5.849620574462466e-05,0.0,0.0,1500.0,0.0,0.0,0.0,-1.322403907775879,1500.0,-0.8620359301567078,-0.18854588270187378,-17.0,0.01064650843716541,,,,,,,
3.100008,0.0,0.0,1.1733837127685547,0.0,1500.0,10.172532,0.0,0.0,-9.142295837402344,20.727317810058594,94.0,0.0,0.0,0.0,0.0,-77.0,488.0,0.0,0.0,0.0,0.0,0.0,0.0,0.0005235987755982988,0.0,0.0,0.0,10.212128,0.0,1.074261280627655e-05,0.0,0.0,0.0,-1.6668768987801876e-05,0.0,0.0,4.7599770150059174e-05,0.0,0.0,1500.0,0.0,0.0,0.0,-1.4290493726730347,1500.0,-0.867058277130127,-0.1272500902414322,-17.0,0.01064650843716541,,,,,,,
3.20001,0.0,0.0,1.1544468402862549,0.0,1500.0,10.292529,0.0,0.0,-9.170137405395508,20.75664520263672,95.0,0.0,0.0,0.0,0.0,-79.0,490.0,0.0,0.0,0.0,0.0,0.0,0.0,0.0005235987755982988,0.0,0.0,0.0,10.31213,0.0,9.547247204977361e-06,0.0,0.0,0.0,1.2746132959345565e-05,0.0,0.0,-0.00011404384320922773,0.0,0.0,1500.0,0.0,0.0,0.0,-1.3490653038024902,1500.0,-0.8629499077796936,-0.17598079144954681,-17.0,0.01064650843716541,,,,,,,
3.300038999999999,0.0,0.0,1.157877802848816,0.0,1500.0,10.372541,0.0,0.0,-9.165990829467773,20.779685974121094,93.0,0.0,0.0,0.0,0.0,-77.0,490.0,0.0,0.0,0.0,0.0,0.0,0.0,0.0005235987755982988,0.0,0.0,0.0,10.412158999999999,0.0,1.4911133870482354e-05,0.0,0.0,0.0,-4.500489482499106e-05,0.0,0.0,1.6239023087160155e-06,0.0,0.0,1500.0,0.0,0.0,0.0,-1.4077203273773193,1500.0,-0.867058277130127,-0.18094587326049805,-17.0,0.01064650843716541,,,,,,,
3.3999999999999995,0.0,0.0,1.181292176246643,0.0,1500.0,10.494385,0.0,0.0,-9.139974594116211,20.747102737426758,92.0,0.0,0.0,0.0,0.0,-80.0,489.0,0.0,0.0,0.0,0.0,0.0,0.0,0.0005235987755982988,0.0,0.0,0.0,10.51212,0.0,8.733266378773788e-06,0.0,0.0,0.0,-6.6266201523121e-06,0.0,0.0,-7.006343804247013e-05,0.0,0.0,1500.0,0.0,0.0,0.0,-1.3384007215499878,1500.0,-0.8635584115982056,-0.13489802181720734,-17.0,0.01064650843716541,,,,,,,
3.5000150000000003,0.0,0.0,1.1383042335510254,0.0,1500.0,10.57306,0.0,0.0,-9.152803421020508,20.75664520263672,95.0,0.0,0.0,0.0,0.0,-81.0,493.0,0.0,0.0,0.0,0.0,0.0,0.0,0.0005235987755982988,0.0,0.0,0.0,10.612135,0.0,5.110734787379807e-06,0.0,0.0,0.0,-1.1982681983944845e-06,0.0,0.0,-6.204218913160565e-05,0.0,0.0,1500.0,0.0,0.0,0.0,-1.2690812349319458,1500.0,-0.8656883239746094,-0.17231103777885437,-17.0,0.01064650843716541,,,,,,,
3.599989999999999,0.0,0.0,1.1593685150146484,0.0,1500.0,10.692502,0.0,0.0,-9.163726806640625,20.79120635986328,96.0,0.0,0.0,0.0,0.0,-79.0,496.0,0.0,0.0,0.0,0.0,0.0,0.0,0.0005235987755982988,0.0,0.0,0.0,10.71211,0.0,1.4247930118399915e-05,0.0,0.0,0.0,-1.908973179887444e-05,0.0,0.0,-6.139258645399908e-06,0.0,0.0,1500.0,0.0,0.0,0.0,-1.3703943490982056,1500.0,-0.86431884765625,-0.14545482397079468,-17.0,0.01064650843716541,,,,,,,
3.7000140000000004,0.0,0.0,1.1769423484802246,0.0,1500.0,10.772511,0.0,0.0,-9.148929595947266,20.788066864013672,96.0,0.0,0.0,0.0,0.0,-80.0,496.0,0.0,0.0,0.0,0.0,0.0,0.0,0.0005235987755982988,0.0,0.0,0.0,10.812134,0.0,1.4023163930589177e-05,0.0,0.0,0.0,-4.407234753620888e-06,0.0,0.0,-6.749930431537329e-05,0.0,0.0,1500.0,0.0,0.0,0.0,-1.1837648153305054,1500.0,-0.86431884765625,-0.147378072142601,-17.0,0.01064650843716541,,,,,,,
3.800083999999999,0.0,0.0,1.1456800699234009,0.0,1500.0,10.892507,0.0,0.0,-9.166482925415039,20.783178329467773,97.0,0.0,0.0,0.0,0.0,-76.0,495.0,0.0,0.0,0.0,0.0,0.0,0.0,0.0005235987755982988,0.0,0.0,0.0,10.912204,0.0,8.80400456339835e-06,0.0,0.0,0.0,-9.93784836397236e-06,0.0,0.0,-8.933821272372654e-05,0.0,0.0,1500.0,0.0,0.0,0.0,-1.3170716762542725,1500.0,-0.8620359301567078,-0.1821029931306839,-17.0,0.01064650843716541,,,,,,,
3.9000839999999988,0.0,0.0,1.1680456399917603,0.0,1500.0,10.972503,0.0,0.0,-9.127707481384277,20.783876419067383,99.0,0.0,0.0,0.0,0.0,-78.0,493.0,0.0,0.0,0.0,0.0,0.0,0.0,0.0005235987755982988,0.0,0.0,0.0,11.012203999999999,0.0,9.718258264782362e-06,0.0,0.0,0.0,-3.365882323144014e-05,0.0,0.0,2.0340173218112043e-05,0.0,0.0,1500.0,0.0,0.0,0.0,-1.3384007215499878,1500.0,-0.867058277130127,-0.15678885579109192,-17.0,0.01064650843716541,,,,,,,
4.000002999999999,0.0,0.0,1.1527140140533447,0.0,1500.0,11.092514,0.0,0.0,-9.15167236328125,20.76921272277832,97.0,0.0,0.0,0.0,0.0,-77.0,496.0,0.0,0.0,0.0,0.0,0.0,0.0,0.0005235987755982988,0.0,0.0,0.0,11.112122999999999,0.0,-1.7968772852466647e-05,0.0,0.0,0.0,2.6794141099398964e-05,0.0,0.0,-6.679503929736874e-05,0.0,0.0,1500.0,0.0,0.0,0.0,-1.3597298860549927,1500.0,-0.8602100014686584,-0.14332397282123566,-17.0,0.01064650843716541,,,,,,,
4.100015,0.0,0.0,1.1631923913955688,0.0,1500.0,11.172559,0.0,0.0,-9.147845268249512,20.72103500366211,95.0,0.0,0.0,0.0,0.0,-79.0,493.0,0.0,0.0,0.0,0.0,0.0,0.0,0.0005235987755982988,0.0,0.0,0.0,11.212135,0.0,1.2476150157922645e-06,0.0,0.0,0.0,-1.6247678177838152e-05,0.0,0.0,2.075072695424371e-05,0.0,0.0,1500.0,0.0,0.0,0.0,-1.2050938606262207,1500.0,-0.867058277130127,-0.18525967001914978,-17.0,0.01064650843716541,,,,,,,
4.200007,0.0,0.0,1.1747705936431885,0.0,1500.0,11.292529,0.0,0.0,-9.13022518157959,20.75175666809082,98.0,0.0,0.0,0.0,0.0,-81.0,491.0,0.0,0.0,0.0,0.0,0.0,0.0,0.0005235987755982988,0.0,0.0,0.0,11.312127,0.0,1.2595546877307e-05,0.0,0.0,0.0,8.028054400689643e-07,0.0,0.0,-5.080637686095684e-05,0.0,0.0,1500.0,0.0,0.0,0.0,-1.3650621175765991,1500.0,-0.8589920401573181,-0.1297054886817932,-17.0,0.01064650843716541,,,,,,,
4.300002999999999,0.0,0.0,1.1456928253173828,0.0,1500.0,11.372506,0.0,0.0,-9.148279190063477,20.74302864074707,96.0,0.0,0.0,0.0,0.0,-79.0,489.0,0.0,0.0,0.0,0.0,0.0,0.0,0.0005235987755982988,0.0,0.0,0.0,11.412123,0.0,9.213913193293676e-06,0.0,0.0,0.0,-5.3426611464562916e-06,0.0,0.0,-4.719517170960852e-05,0.0,0.0,1500.0,0.0,0.0,0.0,-1.253084421157837,1500.0,-0.8684276938438416,-0.19003967940807343,-17.0,0.01064650843716541,,,,,,,
4.4000189999999995,0.0,0.0,1.1636228561401367,0.0,1500.0,11.493224999999999,0.0,0.0,-9.155475616455078,20.729413986206055,95.0,0.0,0.0,0.0,0.0,-77.0,495.0,0.0,0.0,0.0,0.0,0.0,0.0,0.0005235987755982988,0.0,0.0,0.0,11.512139,0.0,-4.787932769951513e-08,0.0,0.0,0.0,-2.365098134878218e-06,0.0,0.0,-2.2814697117361777e-05,0.0,0.0,1500.0,0.0,0.0,0.0,-1.327736258506775,1500.0,-0.8602100014686584,-0.1317405104637146,-17.0,0.01064650843716541,,,,,,,
4.500011,0.0,0.0,1.1655495166778564,0.0,1500.0,11.573139999999999,0.0,0.0,-9.144107818603516,20.7252254486084,93.0,0.0,0.0,0.0,0.0,-77.0,493.0,0.0,0.0,0.0,0.0,0.0,0.0,0.0005235987755982988,0.0,0.0,0.0,11.612131,0.0,-5.775434982747496e-06,0.0,0.0,0.0,2.782792231926643e-06,0.0,0.0,-2.639387655375814e-05,0.0,0.0,1500.0,0.0,0.0,0.0,-1.157103419303894,1500.0,-0.8697976469993591,-0.16877888143062592,-17.0,0.01064650843716541,,,,,,,
4.600098,0.0,0.0,1.1621809005737305,0.0,1500.0,11.692506,0.0,0.0,-9.15261459350586,20.841365814208984,92.0,0.0,0.0,0.0,0.0,-78.0,498.0,0.0,0.0,0.0,0.0,0.0,0.0,0.0005235987755982988,0.0,0.0,0.0,11.712218,0.0,1.653701899194921e-05,0.0,0.0,0.0,9.199381286394124e-07,0.0,0.0,3.0152982722920372e-05,0.0,0.0,1500.0,0.0,0.0,0.0,-1.1144452095031738,1500.0,-0.8650798201560974,-0.13066402077674866,-17.0,0.01064650843716541,,,,,,,
4.700015999999999,0.0,0.0,1.140633225440979,0.0,1500.0,11.772497999999999,0.0,0.0,-9.159093856811523,20.832054138183594,93.0,0.0,0.0,0.0,0.0,-79.0,496.0,0.0,0.0,0.0,0.0,0.0,0.0,0.0005235987755982988,0.0,0.0,0.0,11.812135999999999,0.0,8.58768977524138e-06,0.0,0.0,0.0,3.428960506159082e-05,0.0,0.0,8.874930692359489e-06,0.0,0.0,1500.0,0.0,0.0,0.0,-1.231755256652832,1500.0,-0.867058277130127,-0.13597933948040009,-17.0,0.01064650843716541,,,,,,,
4.800000999999999,0.0,0.0,1.1509780883789062,0.0,1500.0,11.892424,0.0,0.0,-9.150781631469727,20.814250946044922,95.0,0.0,0.0,0.0,0.0,-78.0,490.0,0.0,0.0,0.0,0.0,0.0,0.0,0.0005235987755982988,0.0,0.0,0.0,11.912120999999999,0.0,1.5721358857700477e-05,0.0,0.0,0.0,-8.002051158820086e-06,0.0,0.0,-2.6262289104358726e-05,0.0,0.0,1500.0,0.0,0.0,0.0,-1.1624356508255005,1500.0,-0.8602100014686584,-0.15852752327919006,-17.0,0.01064650843716541,,,,,,,
4.899993999999999,0.0,0.0,1.1615184545516968,0.0,1500.0,11.972522999999999,0.0,0.0,-9.16555118560791,20.687519073486328,93.0,0.0,0.0,0.0,0.0,-80.0,494.0,0.0,0.0,0.0,0.0,0.0,0.0,0.0005235987755982988,0.0,0.0,0.0,12.012113999999999,0.0,1.6267702884963454e-05,0.0,0.0,0.0,-2.2136996253479933e-05,0.0,0.0,-6.400504727347838e-05,0.0,0.0,1500.0,0.0,0.0,0.0,-1.0557901859283447,1500.0,-0.8697976469993591,-0.17135518789291382,-17.0,0.01064650843716541,,,,,,,
4.999978,0.0,0.0,1.1554871797561646,0.0,1500.0,12.092418,0.0,0.0,-9.112495422363281,20.65283966064453,92.0,0.0,0.0,0.0,0.0,-78.0,493.0,0.0,0.0,0.0,0.0,0.0,0.0,0.0005235987755982988,0.0,0.0,0.0,12.112098,0.0,1.4115269862409037e-05,0.0,0.0,0.0,-2.0563369816733565e-05,0.0,0.0,8.069377899757024e-06,0.0,0.0,1500.0,0.0,0.0,0.0,-1.1304420232772827,1500.0,-0.8726885318756104,-0.12389246374368668,-17.0,0.01064650843716541,,,,,,,
5.100020999999999,0.0,0.0,1.1491680145263672,0.0,1500.0,12.172450999999999,0.0,0.0,-9.134843826293945,20.703229904174805,92.0,0.0,0.0,0.0,0.0,-76.0,493.0,0.0,0.0,0.0,0.0,0.0,0.0,0.0005235987755982988,0.0,0.0,0.0,12.212140999999999,0.0,1.8051827486628708e-06,0.0,0.0,0.0,2.807427772381502e-05,0.0,0.0,-6.41740346299404e-05,0.0,0.0,1500.0,0.0,0.0,0.0,-1.2797456979751587,1500.0,-0.867058277130127,-0.16553078591823578,-17.0,0.01064650843716541,,,,,,,
5.1999889999999995,0.0,0.0,1.1607975959777832,0.0,1500.0,12.292506999999999,0.0,0.0,-9.155683517456055,20.71160888671875,94.0,0.0,0.0,0.0,0.0,-78.0,495.0,0.0,0.0,0.0,0.0,0.0,0.0,0.0005235987755982988,0.0,0.0,0.0,12.312109,0.0,-4.5276876439831313e-07,0.0,0.0,0.0,-2.854735292135937e-06,0.0,0.0,1.847640771178185e-07,0.0,0.0,1500.0,0.0,0.0,0.0,-1.0771193504333496,1500.0,-0.8629499077796936,-0.15496519207954407,-17.0,0.01064650843716541,,,,,,,
5.300009999999999,0.0,0.0,1.170316457748413,0.0,1500.0,12.372539,0.0,0.0,-9.15877914428711,20.70637321472168,94.0,0.0,0.0,0.0,0.0,-77.0,498.0,0.0,0.0,0.0,0.0,0.0,0.0,0.0005235987755982988,0.0,0.0,0.0,12.41213,0.0,1.1366784075356543e-05,0.0,0.0,0.0,9.955302297347948e-07,0.0,0.0,-3.690356334027071e-05,0.0,0.0,1500.0,0.0,0.0,0.0,-1.2264230251312256,1500.0,-0.8684276938438416,-0.12665307521820068,-17.0,0.01064650843716541,,,,,,,
5.399993999999999,0.0,0.0,1.147587776184082,0.0,1500.0,12.49321,0.0,0.0,-9.179600715637207,20.75292205810547,94.0,0.0,0.0,0.0,0.0,-77.0,498.0,0.0,0.0,0.0,0.0,0.0,0.0,0.0005235987755982988,0.0,0.0,0.0,12.512113999999999,0.0,2.370726305822065e-06,0.0,0.0,0.0,4.261057744126781e-06,0.0,0.0,-3.544126293752591e-05,0.0,0.0,1500.0,0.0,0.0,0.0,-1.2424198389053345,1500.0,-0.8620359301567078,-0.14808392524719238,-17.0,0.01064650843716541,,,,,,,
5.5000149999999985,0.0,0.0,1.1414341926574707,0.0,1500.0,12.573117,0.0,0.0,-9.140713691711426,20.762929916381836,96.0,0.0,0.0,0.0,0.0,-79.0,497.0,0.0,0.0,0.0,0.0,0.0,0.0,0.0005235987755982988,0.0,0.0,0.0,12.612134999999999,0.0,1.884014578356747e-05,0.0,0.0,0.0,-1.9526227948945116e-05,0.0,0.0,-2.9992047511386325e-05,0.0,0.0,1500.0,0.0,0.0,0.0,-1.1464388370513916,1500.0,-0.8684276938438416,-0.15444305539131165,-17.0,0.01064650843716541,,,,,,,
5.600079,0.0,0.0,1.155870795249939,0.0,1500.0,12.692527,0.0,0.0,-9.133401870727539,20.76502227783203,94.0,0.0,0.0,0.0,0.0,-82.0,495.0,0.0,0.0,0.0,0.0,0.0,0.0,0.0005235987755982988,0.0,0.0,0.0,12.712199,0.0,-8.632203121464415e-06,0.0,0.0,0.0,-5.326769690862586e-06,0.0,0.0,-7.095884956217624e-05,0.0,0.0,1500.0,0.0,0.0,0.0,-1.3117393255233765,1500.0,-0.8629499077796936,-0.12837976217269897,-17.0,0.01064650843716541,,,,,,,
5.700041999999999,0.0,0.0,1.1627099514007568,0.0,1500.0,12.77253,0.0,0.0,-9.159478187561035,20.75874137878418,95.0,0.0,0.0,0.0,0.0,-81.0,494.0,0.0,0.0,0.0,0.0,0.0,0.0,0.0005235987755982988,0.0,0.0,0.0,12.812161999999999,0.0,-1.401474884990856e-07,0.0,0.0,0.0,1.5439524388004826e-06,0.0,0.0,2.2381833880521283e-05,0.0,0.0,1500.0,0.0,0.0,0.0,-1.103780746459961,1500.0,-0.86431884765625,-0.1642257273197174,-17.0,0.01064650843716541,,,,,,,
5.800012,0.0,0.0,1.1472889184951782,0.0,1500.0,12.892503999999999,0.0,0.0,-9.126379013061523,20.762231826782227,90.0,0.0,0.0,0.0,0.0,-81.0,490.0,0.0,0.0,0.0,0.0,0.0,0.0,0.0005235987755982988,0.0,0.0,0.0,12.912132,0.0,8.333315750970807e-06,0.0,0.0,0.0,2.3764476362019324e-05,0.0,0.0,-2.2213228508224413e-05,0.0,0.0,1500.0,0.0,0.0,0.0,-1.173100233078003,1500.0,-0.8620359301567078,-0.1486390084028244,-17.0,0.01064650843716541,,,,,,,
5.900002999999999,0.0,0.0,1.140252947807312,0.0,1500.0,12.972503999999999,0.0,0.0,-9.146488189697266,20.74721908569336,92.0,0.0,0.0,0.0,0.0,-81.0,493.0,0.0,0.0,0.0,0.0,0.0,0.0,0.0005235987755982988,0.0,0.0,0.0,13.012122999999999,0.0,-2.7941979133682626e-05,0.0,0.0,0.0,1.3913252050730904e-05,0.0,0.0,-1.8993528680517302e-05,0.0,0.0,1500.0,0.0,0.0,0.0,-1.0931161642074585,1500.0,-0.8629499077796936,-0.14625294506549835,-17.0,0.01064650843716541,,,,,,,
6.000080999999999,0.0,0.0,1.1301355361938477,0.0,1500.0,13.092502,0.0,0.0,-9.14415168762207,20.746171951293945,93.0,0.0,0.0,0.0,0.0,-80.0,496.0,0.0,0.0,0.0,0.0,0.0,0.0,0.0005235987755982988,0.0,0.0,0.0,13.112200999999999,0.0,1.5224381204205435e-05,0.0,0.0,0.0,6.792893490962473e-06,0.0,0.0,-6.997835310151542e-05,0.0,0.0,1500.0,0.0,0.0,0.0,-1.2050938606262207,1500.0,-0.861579418182373,-0.12119893729686737,-17.0,0.01064650843716541,,,,,,,
6.100004999999999,0.0,0.0,1.110997200012207,0.0,1500.0,13.172525,0.0,0.0,-9.137039184570312,20.71893882751465,93.0,0.0,0.0,0.0,0.0,-81.0,496.0,0.0,0.0,0.0,0.0,0.0,0.0,0.0005235987755982988,0.0,0.0,0.0,13.212124999999999,0.0,1.2384942549235835e-05,0.0,0.0,0.0,-5.823094618756288e-05,0.0,0.0,-0.00011176460871440684,0.0,0.0,1500.0,0.0,0.0,0.0,-1.178432583808899,1500.0,-0.86431884765625,-0.22804048657417297,-17.0,0.01064650843716541,,,,,,,
6.200005,0.0,0.0,1.2000112533569336,0.0,1500.0,13.292505,0.0,0.0,-9.102126121520996,20.714519500732422,94.0,0.0,0.0,0.0,0.0,-81.0,498.0,0.0,0.0,0.0,0.0,0.0,0.0,0.0005235987755982988,0.0,0.0,0.0,13.312125,0.0,3.800545355588139e-05,0.0,0.0,0.0,-3.8625287882405553e-05,0.0,0.0,5.245086339216771e-05,0.0,0.0,1500.0,0.0,0.0,0.0,-1.178432583808899,1500.0,-0.8635584115982056,-0.0784769132733345,-17.0,0.01064650843716541,,,,,,,
6.299984999999999,0.0,0.0,1.144657850265503,0.0,1500.0,13.372494999999999,0.0,0.0,-9.172664642333984,20.746171951293945,94.0,0.0,0.0,0.0,0.0,-82.0,499.0,0.0,0.0,0.0,0.0,0.0,0.0,0.0005235987755982988,0.0,0.0,0.0,13.412104999999999,0.0,1.0639622357580809e-05,0.0,0.0,0.0,5.81554352327047e-05,0.0,0.0,-0.0001283631860800332,0.0,0.0,1500.0,0.0,0.0,0.0,-1.2424198389053345,1500.0,-0.8656883239746094,-0.21388037502765656,-17.0,0.01064650843716541,,,,,,,
6.400087999999999,0.0,0.0,1.1807758808135986,0.0,1500.0,13.493018999999999,0.0,0.0,-9.142282485961914,20.714752197265625,92.0,0.0,0.0,0.0,0.0,-81.0,496.0,0.0,0.0,0.0,0.0,0.0,0.0,0.0005235987755982988,0.0,0.0,0.0,13.512208,0.0,-7.3279435874704425e-06,0.0,0.0,0.0,-3.3366849164786405e-05,0.0,0.0,0.00018886057842020738,0.0,0.0,1500.0,0.0,0.0,0.0,-1.0717869997024536,1500.0,-0.8834941387176514,-0.15277551114559174,-17.0,0.01064650843716541,,,,,,,
6.500078999999999,0.0,0.0,1.1640993356704712,0.0,1500.0,13.573025999999999,0.0,0.0,-9.165924072265625,20.70427703857422,95.0,0.0,0.0,0.0,0.0,-85.0,496.0,0.0,0.0,0.0,0.0,0.0,0.0,0.0005235987755982988,0.0,0.0,0.0,13.612198999999999,0.0,4.538424472167503e-06,0.0,0.0,0.0,5.26373895109356e-05,0.0,0.0,-4.9129771150583396e-05,0.0,0.0,1500.0,0.0,0.0,0.0,-1.1091129779815674,1500.0,-0.8834941387176514,-0.098692886531353,-17.0,0.01064650843716541,,,,,,,
6.6000179999999995,0.0,0.0,1.1000216007232666,0.0,1500.0,13.692502,0.0,0.0,-9.174259185791016,20.724992752075195,93.0,0.0,0.0,0.0,0.0,-81.0,492.0,0.0,0.0,0.0,0.0,0.0,0.0,0.0005235987755982988,0.0,0.0,0.0,13.712138,0.0,6.89805901438579e-06,0.0,0.0,0.0,-3.802042002056456e-05,0.0,0.0,-3.342603639207675e-05,0.0,0.0,1500.0,0.0,0.0,0.0,-0.9651415944099426,1500.0,-0.8833421468734741,-0.2699514627456665,-17.0,0.01064650843716541,,,,,,,
6.699994999999999,0.0,0.0,1.1829297542572021,0.0,1500.0,13.772495,0.0,0.0,-9.115842819213867,20.72103500366211,95.0,0.0,0.0,0.0,0.0,-81.0,498.0,0.0,0.0,0.0,0.0,0.0,0.0,0.0005235987755982988,0.0,0.0,0.0,13.812114999999999,0.0,3.686624267460407e-05,0.0,0.0,0.0,-4.527667249482825e-05,0.0,0.0,-8.960547160216332e-05,0.0,0.0,1500.0,0.0,0.0,0.0,-1.173100233078003,1500.0,-0.8848636150360107,-0.11985531449317932,-17.0,0.01064650843716541,,,,,,,
6.800074999999999,0.0,0.0,1.1621354818344116,0.0,1500.0,13.892520999999999,0.0,0.0,-9.16462230682373,20.719987869262695,93.0,0.0,0.0,0.0,0.0,-82.0,494.0,0.0,0.0,0.0,0.0,0.0,0.0,0.0005235987755982988,0.0,0.0,0.0,13.912194999999999,0.0,1.0463553055333676e-05,0.0,0.0,0.0,1.5505641427759206e-05,0.0,0.0,-0.00010943630144534918,0.0,0.0,1500.0,0.0,0.0,0.0,-1.1677680015563965,1500.0,-0.8834941387176514,-0.1689620316028595,-17.0,0.01064650843716541,,,,,,,
6.900000999999999,0.0,0.0,1.1674933433532715,0.0,1500.0,13.972512,0.0,0.0,-9.186969757080078,20.71265411376953,94.0,0.0,0.0,0.0,0.0,-78.0,497.0,0.0,0.0,0.0,0.0,0.0,0.0,0.0005235987755982988,0.0,0.0,0.0,14.012120999999999,0.0,3.0514778618568464e-05,0.0,0.0,0.0,6.375279955999941e-05,0.0,0.0,7.438797017659178e-05,0.0,0.0,1500.0,0.0,0.0,0.0,-1.173100233078003,1500.0,-0.8848636150360107,-0.407693475484848,-17.0,0.01064650843716541,,,,,,,
7.000101,0.0,0.0,1.2124356031417847,0.0,1500.0,14.092504,0.0,0.0,-9.176321983337402,20.707534790039062,94.0,0.0,0.0,0.0,0.0,-81.0,495.0,0.0,0.0,0.0,0.0,0.0,0.0,0.0005235987755982988,0.0,0.0,0.0,14.112221,0.0,-2.338302453651174e-05,0.0,0.0,0.0,6.209398862259571e-05,0.0,0.0,0.0001516410816660736,0.0,0.0,1500.0,0.0,0.0,0.0,-1.103780746459961,1500.0,-0.8818197250366211,-0.3238479495048523,-17.0,0.01064650843716541,,,,,,,
7.200010999999999,0.0,0.0,1.121736764907837,0.0,1500.0,14.292501,0.0,0.0,-9.1802978515625,20.708465576171875,92.0,0.0,0.0,0.0,0.0,-80.0,491.0,0.0,0.0,0.0,0.0,0.0,0.0,0.0005235987755982988,0.0,0.0,0.0,14.312130999999999,0.0,1.324180617755326e-06,0.0,0.0,0.0,2.782664429777774e-05,0.0,0.0,-8.121090631577653e-05,0.0,0.0,1500.0,0.0,0.0,0.0,-1.2264230251312256,1500.0,-0.8862324953079224,-0.1702321469783783,-17.0,0.01064650843716541,,,,,,,
7.600015,0.0,0.0,1.187544584274292,0.0,1500.0,14.692506999999999,0.0,0.0,-9.109064102172852,20.69904136657715,92.0,0.0,0.0,0.0,0.0,-80.0,492.0,0.0,0.0,0.0,0.0,0.0,0.0,0.0005235987755982988,0.0,0.0,0.0,14.712135,0.0,3.549863370820117e-05,0.0,0.0,0.0,9.02169185316997e-06,0.0,0.0,-4.8373808233122084e-05,0.0,0.0,1500.0,0.0,0.0,0.0,-1.2424198389053345,1500.0,-0.8862324953079224,-0.0698704943060875,-17.0,0.01064650843716541,,,,,,,
7.800076999999999,0.0,0.0,1.1919575929641724,0.0,1500.0,14.892503999999999,0.0,0.0,-9.058351516723633,20.700088500976562,92.0,0.0,0.0,0.0,0.0,-80.0,490.0,0.0,0.0,0.0,0.0,0.0,0.0,0.0005235987755982988,0.0,0.0,0.0,14.912196999999999,0.0,3.3976979468051426e-05,0.0,0.0,0.0,3.049671970761218e-05,0.0,0.0,-4.969550595380399e-05,0.0,0.0,1500.0,0.0,0.0,0.0,-1.1197775602340698,1500.0,-0.8876029849052429,0.19934329390525818,-17.0,0.01064650843716541,,,,,,,
7.900094999999999,0.0,0.0,1.1620136499404907,0.0,1500.0,14.932509,0.0,0.0,-9.128151893615723,20.78492546081543,94.0,0.0,0.0,0.0,0.0,-78.0,492.0,0.0,0.0,0.0,0.0,0.0,0.0,0.0005235987755982988,0.0,0.0,0.0,15.012215,0.0,2.8905550444898597e-05,0.0,0.0,0.0,-5.5734557758520095e-06,0.0,0.0,-0.0001615433628342438,0.0,0.0,1500.0,0.0,0.0,0.0,-0.9491447806358337,1500.0,-0.8821241855621338,-0.17180342972278595,-17.0,0.01064650843716541,,,,,,,
8.100095,0.0,0.0,1.197035789489746,0.0,1500.0,15.172512,0.0,0.0,-9.097630500793457,20.810060501098633,96.0,0.0,0.0,0.0,0.0,-77.0,500.0,0.0,0.0,0.0,0.0,0.0,0.0,0.0005235987755982988,0.0,0.0,0.0,15.212214999999999,0.0,-3.9964134507884363e-07,0.0,0.0,0.0,2.002199463136343e-05,0.0,0.0,-9.91005901595828e-05,0.0,0.0,1500.0,0.0,0.0,0.0,-0.9758061170578003,1500.0,-0.8848636150360107,-0.25330060720443726,-17.0,0.01064650843716541,,,,,,,
8.200009999999999,0.0,0.0,1.2266838550567627,0.0,1500.0,15.213021,0.0,0.0,-9.165352821350098,20.813434600830078,94.0,0.0,0.0,0.0,0.0,-75.0,495.0,0.0,0.0,0.0,0.0,0.0,0.0,0.0005235987755982988,0.0,0.0,0.0,15.31213,0.0,4.962505120955729e-06,0.0,0.0,0.0,1.6450875467217695e-05,0.0,0.0,-0.0001332156122030584,0.0,0.0,1500.0,0.0,0.0,0.0,-1.1091129779815674,1500.0,-0.8848636150360107,-0.5215279459953308,-17.0,0.01064650843716541,,,,,,,
8.300011999999999,0.0,0.0,1.1360586881637573,0.0,1500.0,15.372508999999999,0.0,0.0,-9.189041137695312,20.804824829101562,91.0,0.0,0.0,0.0,0.0,-77.0,495.0,0.0,0.0,0.0,0.0,0.0,0.0,0.0005235987755982988,0.0,0.0,0.0,15.412132,0.0,1.1154230205761687e-05,0.0,0.0,0.0,2.9643446324080952e-05,0.0,0.0,-0.00013412442567783514,0.0,0.0,1500.0,0.0,0.0,0.0,-1.098448395729065,1500.0,-0.8848636150360107,-0.30119556188583374,-17.0,0.01064650843716541,,,,,,,
8.400085,0.0,0.0,1.1738550662994385,0.0,1500.0,15.493022999999999,0.0,0.0,-9.231208801269531,20.80691909790039,92.0,0.0,0.0,0.0,0.0,-79.0,491.0,0.0,0.0,0.0,0.0,0.0,0.0,0.0005235987755982988,0.0,0.0,0.0,15.512205,0.0,2.7335079441175983e-05,0.0,0.0,0.0,-1.4680156376326727e-05,0.0,0.0,-9.329465028713659e-05,0.0,0.0,1500.0,0.0,0.0,0.0,-1.029128909111023,1500.0,-0.8848636150360107,-0.43974435329437256,-17.0,0.01064650843716541,,,,,,,
8.600019,0.0,0.0,1.1127530336380005,0.0,1500.0,15.692504999999999,0.0,0.0,-9.155572891235352,20.800634384155273,94.0,0.0,0.0,0.0,0.0,-76.0,489.0,0.0,0.0,0.0,0.0,0.0,0.0,0.0005235987755982988,0.0,0.0,0.0,15.712138999999999,0.0,7.947373579692142e-07,0.0,0.0,0.0,4.648413663182604e-05,0.0,0.0,-5.463906577767554e-06,0.0,0.0,1500.0,0.0,0.0,0.0,-0.9491447806358337,1500.0,-0.8903423547744751,-0.22175808250904083,-17.0,0.01064650843716541,,,,,,,
8.700022999999998,0.0,0.0,1.1623002290725708,0.0,1500.0,15.772542999999999,0.0,0.0,-9.143806457519531,20.761882781982422,94.0,0.0,0.0,0.0,0.0,-77.0,497.0,0.0,0.0,0.0,0.0,0.0,0.0,0.0005235987755982988,0.0,0.0,0.0,15.812142999999999,0.0,1.9444615406597998e-05,0.0,0.0,0.0,-2.252810740197201e-05,0.0,0.0,0.00016895535106536814,0.0,0.0,1500.0,0.0,0.0,0.0,-0.9438124895095825,1500.0,-0.8848636150360107,-0.04675024747848511,-17.0,0.01064650843716541,,,,,,,
9.200009999999999,0.0,0.0,1.174638032913208,0.0,1500.0,16.292521,0.0,0.0,-9.180644989013672,20.700088500976562,91.0,0.0,0.0,0.0,0.0,-78.0,491.0,0.0,0.0,0.0,0.0,0.0,0.0,0.0005235987755982988,0.0,0.0,0.0,16.31213,0.0,-4.54409226380933e-06,0.0,0.0,0.0,9.044595867531562e-05,0.0,0.0,-0.00034733283733064563,0.0,0.0,1500.0,0.0,0.0,0.0,-1.0504579544067383,1500.0,-0.8834941387176514,-0.0640217512845993,-17.0,0.01064650843716541,,,,,,,
9.300006999999997,0.0,0.0,1.1255806684494019,0.0,1500.0,16.332506,0.0,0.0,-9.191754341125488,20.775497436523438,91.0,0.0,0.0,0.0,0.0,-81.0,494.0,0.0,0.0,0.0,0.0,0.0,0.0,0.0005235987755982988,0.0,0.0,0.0,16.412126999999998,0.0,4.639546144608513e-06,0.0,0.0,0.0,-4.111888863977506e-05,0.0,0.0,0.00014229643236042942,0.0,0.0,1500.0,0.0,0.0,0.0,-0.9758061170578003,1500.0,-0.8862324953079224,-0.2769598960876465,-17.0,0.01064650843716541,,,,,,,
9.500084999999999,0.0,0.0,1.1048626899719238,0.0,1500.0,16.573111,0.0,0.0,-9.174412727355957,20.791324615478516,92.0,0.0,0.0,0.0,0.0,-81.0,494.0,0.0,0.0,0.0,0.0,0.0,0.0,0.0005235987755982988,0.0,0.0,0.0,16.612205,0.0,1.4972288925772386e-05,0.0,0.0,0.0,4.356540832491783e-07,0.0,0.0,-6.340894066546765e-05,0.0,0.0,1500.0,0.0,0.0,0.0,-0.9064865708351135,1500.0,-0.8863850235939026,-0.32428210973739624,-17.0,0.01064650843716541,,,,,,,
9.600098,0.0,0.0,1.2245930433273315,0.0,1500.0,16.652587999999998,0.0,0.0,-9.11308765411377,20.78492546081543,94.0,0.0,0.0,0.0,0.0,-80.0,493.0,0.0,0.0,0.0,0.0,0.0,0.0,0.0005235987755982988,0.0,0.0,0.0,16.712218,0.0,1.5236859692238517e-05,0.0,0.0,0.0,-4.2101660750781416e-05,0.0,0.0,3.455941591934366e-05,0.0,0.0,1500.0,0.0,0.0,0.0,-0.9971352219581604,1500.0,-0.8848636150360107,-0.0029322823975235224,-17.0,0.01064650843716541,,,,,,,
9.700014,0.0,0.0,1.1247502565383911,0.0,1500.0,16.77251,0.0,0.0,-9.191483497619629,20.7775936126709,93.0,0.0,0.0,0.0,0.0,-80.0,493.0,0.0,0.0,0.0,0.0,0.0,0.0,0.0005235987755982988,0.0,0.0,0.0,16.812134,0.0,2.2698301665849417e-05,0.0,0.0,0.0,6.269716600132289e-05,0.0,0.0,-5.631740463960679e-05,0.0,0.0,1500.0,0.0,0.0,0.0,-0.9864706993103027,1500.0,-0.8862324953079224,-0.21458862721920013,-17.0,0.01064650843716541,,,,,,,
9.800100999999998,0.0,0.0,1.1410166025161743,0.0,1500.0,16.892505,0.0,0.0,-9.140413284301758,20.783178329467773,96.0,0.0,0.0,0.0,0.0,-79.0,494.0,0.0,0.0,0.0,0.0,0.0,0.0,0.0005235987755982988,0.0,0.0,0.0,16.912221,0.0,1.818970599172664e-05,0.0,0.0,0.0,-5.309214572319846e-05,0.0,0.0,4.310802647947728e-05,0.0,0.0,1500.0,0.0,0.0,0.0,-0.9171510934829712,1500.0,-0.8833421468734741,-0.14355561137199402,-17.0,0.01064650843716541,,,,,,,
9.900008,0.0,0.0,1.171743631362915,0.0,1500.0,16.932506999999998,0.0,0.0,-9.137948036193848,20.779685974121094,96.0,0.0,0.0,0.0,0.0,-80.0,497.0,0.0,0.0,0.0,0.0,0.0,0.0,0.0005235987755982988,0.0,0.0,0.0,17.012128,0.0,1.5451278782384437e-05,0.0,0.0,0.0,-3.2513567653932517e-06,0.0,0.0,-0.00010341290692774257,0.0,0.0,1500.0,0.0,0.0,0.0,-1.1464388370513916,1500.0,-0.8889719247817993,-0.15277838706970215,-17.0,0.01064650843716541,,,,,,,
10.099993999999999,0.0,0.0,1.1592320203781128,0.0,1500.0,17.172515999999998,0.0,0.0,-9.14189338684082,20.7775936126709,97.0,0.0,0.0,0.0,0.0,-80.0,498.0,0.0,0.0,0.0,0.0,0.0,0.0,0.0005235987755982988,0.0,0.0,0.0,17.212114,0.0,-6.048499309353706e-06,0.0,0.0,0.0,6.475381344672195e-05,0.0,0.0,-8.859852883355841e-05,0.0,0.0,1500.0,0.0,0.0,0.0,-0.8158379197120667,1500.0,-0.8848636150360107,-0.1540611982345581,-17.0,0.01064650843716541,,,,,,,
10.200018999999998,0.0,0.0,1.1541731357574463,0.0,1500.0,17.292526,0.0,0.0,-9.17218017578125,20.75874137878418,98.0,0.0,0.0,0.0,0.0,-80.0,499.0,0.0,0.0,0.0,0.0,0.0,0.0,0.0005235987755982988,0.0,0.0,0.0,17.312139,0.0,1.9476767095051228e-05,0.0,0.0,0.0,-2.301259945602664e-05,0.0,0.0,1.9199574596490085e-05,0.0,0.0,1500.0,0.0,0.0,0.0,-0.8744929432868958,1500.0,-0.8939947485923767,-0.14071393013000488,-17.0,0.01064650843716541,,,,,,,
10.299999999999997,0.0,0.0,1.1357595920562744,0.0,1500.0,17.372494,0.0,0.0,-9.157976150512695,20.79120635986328,94.0,0.0,0.0,0.0,0.0,-80.0,495.0,0.0,0.0,0.0,0.0,0.0,0.0,0.0005235987755982988,0.0,0.0,0.0,17.412119999999998,0.0,2.74980038149317e-05,0.0,0.0,0.0,-3.0605434839208385e-05,0.0,0.0,-0.0001293095152762205,0.0,0.0,1500.0,0.0,0.0,0.0,-1.0397933721542358,1500.0,-0.8752759695053101,-0.12916791439056396,-17.0,0.01064650843716541,,,,,,,
10.400025,0.0,0.0,1.155725359916687,0.0,1500.0,17.493059,0.0,0.0,-9.1771240234375,20.79958724975586,95.0,0.0,0.0,0.0,0.0,-79.0,495.0,0.0,0.0,0.0,0.0,0.0,0.0,0.0005235987755982988,0.0,0.0,0.0,17.512145,0.0,2.2718321293398054e-05,0.0,0.0,0.0,-3.446433437151396e-05,0.0,0.0,-6.199026773077567e-05,0.0,0.0,1500.0,0.0,0.0,0.0,-1.0397933721542358,1500.0,-0.8656883239746094,-0.1882358193397522,-17.0,0.01064650843716541,,,,,,,
10.5,0.0,0.0,1.1725683212280273,0.0,1500.0,17.57311,0.0,0.0,-9.128798484802246,20.79120635986328,96.0,0.0,0.0,0.0,0.0,-78.0,493.0,0.0,0.0,0.0,0.0,0.0,0.0,0.0005235987755982988,0.0,0.0,0.0,17.61212,0.0,6.792322546545425e-06,0.0,0.0,0.0,-2.3101764820915638e-06,0.0,0.0,-8.181340912672272e-05,0.0,0.0,1500.0,0.0,0.0,0.0,-0.9011542797088623,1500.0,-0.8684276938438416,-0.11489870399236679,-17.0,0.01064650843716541,,,,,,,
10.600015999999997,0.0,0.0,1.155265212059021,0.0,1500.0,17.692508999999998,0.0,0.0,-9.18063735961914,20.795978546142578,96.0,0.0,0.0,0.0,0.0,-77.0,489.0,0.0,0.0,0.0,0.0,0.0,0.0,0.0005235987755982988,0.0,0.0,0.0,17.712135999999997,0.0,8.421078644742843e-06,0.0,0.0,0.0,4.064585306292869e-06,0.0,0.0,-2.9270765911556978e-05,0.0,0.0,1500.0,0.0,0.0,0.0,-0.9491447806358337,1500.0,-0.8666017651557922,-0.1828780174255371,-17.0,0.01064650843716541,,,,,,,
10.700007,0.0,0.0,1.167065978050232,0.0,1500.0,17.772524,0.0,0.0,-9.134085655212402,20.78597068786621,95.0,0.0,0.0,0.0,0.0,-77.0,491.0,0.0,0.0,0.0,0.0,0.0,0.0,0.0005235987755982988,0.0,0.0,0.0,17.812127,0.0,6.4376649799834225e-06,0.0,0.0,0.0,-3.7555919148429245e-05,0.0,0.0,0.00017070020596780073,0.0,0.0,1500.0,0.0,0.0,0.0,-1.007799744606018,1500.0,-0.8711670637130737,-0.10813788324594498,-17.0,0.01064650843716541,,,,,,,
10.800004999999999,0.0,0.0,1.135201334953308,0.0,1500.0,17.892504,0.0,0.0,-9.17451000213623,20.798540115356445,95.0,0.0,0.0,0.0,0.0,-78.0,486.0,0.0,0.0,0.0,0.0,0.0,0.0,0.0005235987755982988,0.0,0.0,0.0,17.912125,0.0,6.0592106126653405e-06,0.0,0.0,0.0,4.146508413957231e-05,0.0,0.0,-0.00021975579904444262,0.0,0.0,1500.0,0.0,0.0,0.0,-0.9491447806358337,1500.0,-0.86431884765625,-0.2121579945087433,-17.0,0.01064650843716541,,,,,,,
10.899996999999999,0.0,0.0,1.173059344291687,0.0,1500.0,17.972526,0.0,0.0,-9.147679328918457,20.783876419067383,94.0,0.0,0.0,0.0,0.0,-78.0,494.0,0.0,0.0,0.0,0.0,0.0,0.0,0.0005235987755982988,0.0,0.0,0.0,18.012117,0.0,2.9940126110556335e-05,0.0,0.0,0.0,-5.571296752586691e-05,0.0,0.0,7.35009785631641e-05,0.0,0.0,1500.0,0.0,0.0,0.0,-0.7785120010375977,1500.0,-0.8697976469993591,-0.17613011598587036,-17.0,0.01064650843716541,,,,,,,
11.000179999999997,0.0,0.0,1.1716910600662231,0.0,1500.0,18.09251,0.0,0.0,-9.133766174316406,20.791324615478516,99.0,0.0,0.0,0.0,0.0,-78.0,493.0,0.0,0.0,0.0,0.0,0.0,0.0,0.0005235987755982988,0.0,0.0,0.0,18.112299999999998,0.0,1.037110272821599e-05,0.0,0.0,0.0,5.5710882867603955e-05,0.0,0.0,-0.00014588745736960652,0.0,0.0,1500.0,0.0,0.0,0.0,-1.0397933721542358,1500.0,-0.8666017651557922,-0.07860788702964783,-17.0,0.01064650843716541,,,,,,,
11.100085999999997,0.0,0.0,1.1331928968429565,0.0,1500.0,18.172501999999998,0.0,0.0,-9.180581092834473,20.760833740234375,99.0,0.0,0.0,0.0,0.0,-78.0,494.0,0.0,0.0,0.0,0.0,0.0,0.0,0.0005235987755982988,0.0,0.0,0.0,18.212206,0.0,1.1497213381276538e-05,0.0,0.0,0.0,4.335388205368212e-06,0.0,0.0,6.611904110758471e-05,0.0,0.0,1500.0,0.0,0.0,0.0,-1.0504579544067383,1500.0,-0.8780153393745422,-0.21311335265636444,-17.0,0.01064650843716541,,,,,,,
11.200019999999999,0.0,0.0,1.185105800628662,0.0,1500.0,18.292534,0.0,0.0,-9.11790657043457,20.77130699157715,97.0,0.0,0.0,0.0,0.0,-78.0,496.0,0.0,0.0,0.0,0.0,0.0,0.0,0.0005235987755982988,0.0,0.0,0.0,18.31214,0.0,3.3010396983788965e-05,0.0,0.0,0.0,-3.672259631020403e-05,0.0,0.0,3.734499887068957e-05,0.0,0.0,1500.0,0.0,0.0,0.0,-0.9171510934829712,1500.0,-0.8656883239746094,-0.08225809782743454,-17.0,0.01064650843716541,,,,,,,
11.299999,0.0,0.0,1.1128536462783813,0.0,1500.0,18.372533999999998,0.0,0.0,-9.160103797912598,20.768165588378906,96.0,0.0,0.0,0.0,0.0,-78.0,494.0,0.0,0.0,0.0,0.0,0.0,0.0,0.0005235987755982988,0.0,0.0,0.0,18.412119,0.0,1.3938764732484122e-05,0.0,0.0,0.0,-1.1216642456276088e-06,0.0,0.0,-0.00012813540973509132,0.0,0.0,1500.0,0.0,0.0,0.0,-0.9758061170578003,1500.0,-0.8725365400314331,-0.1895160973072052,-17.0,0.01064650843716541,,,,,,,
11.400084999999997,0.0,0.0,1.1563509702682495,0.0,1500.0,18.493017,0.0,0.0,-9.141885757446289,20.761066436767578,93.0,0.0,0.0,0.0,0.0,-77.0,494.0,0.0,0.0,0.0,0.0,0.0,0.0,0.0005235987755982988,0.0,0.0,0.0,18.512204999999998,0.0,1.8897398708064125e-05,0.0,0.0,0.0,-2.7110302078296584e-05,0.0,0.0,7.04226088128982e-05,0.0,0.0,1500.0,0.0,0.0,0.0,-1.082451581954956,1500.0,-0.8681231737136841,-0.13202683627605438,-17.0,0.01064650843716541,,,,,,,
11.500017999999997,0.0,0.0,1.1664960384368896,0.0,1500.0,18.572988,0.0,0.0,-9.18238353729248,20.752456665039062,94.0,0.0,0.0,0.0,0.0,-78.0,494.0,0.0,0.0,0.0,0.0,0.0,0.0,0.0005235987755982988,0.0,0.0,0.0,18.612137999999998,0.0,8.980634650909204e-06,0.0,0.0,0.0,7.1387242771552305e-06,0.0,0.0,-0.00011213040325280493,0.0,0.0,1500.0,0.0,0.0,0.0,-0.8904897570610046,1500.0,-0.8697976469993591,-0.1859380453824997,-17.0,0.01064650843716541,,,,,,,
11.600076999999999,0.0,0.0,1.1370309591293335,0.0,1500.0,18.692501,0.0,0.0,-9.172672271728516,20.74302864074707,96.0,0.0,0.0,0.0,0.0,-74.0,493.0,0.0,0.0,0.0,0.0,0.0,0.0,0.0005235987755982988,0.0,0.0,0.0,18.712197,0.0,1.6955882915503383e-05,0.0,0.0,0.0,-1.5254425884258384e-05,0.0,0.0,3.0091473113179185e-05,0.0,0.0,1500.0,0.0,0.0,0.0,-0.9918029308319092,1500.0,-0.8656883239746094,-0.1791711151599884,-17.0,0.01064650843716541,,,,,,,
11.700002999999999,0.0,0.0,1.1777104139328003,0.0,1500.0,18.772513,0.0,0.0,-9.136048316955566,20.684377670288086,93.0,0.0,0.0,0.0,0.0,-77.0,492.0,0.0,0.0,0.0,0.0,0.0,0.0,0.0005235987755982988,0.0,0.0,0.0,18.812123,0.0,1.3532454474697662e-05,0.0,0.0,0.0,2.5599361681246815e-05,0.0,0.0,-8.490257196148454e-05,0.0,0.0,1500.0,0.0,0.0,0.0,-1.0397933721542358,1500.0,-0.8684276938438416,-0.11035364866256714,-17.0,0.01064650843716541,,,,,,,
11.800009999999997,0.0,0.0,1.1520447731018066,0.0,1500.0,18.892502,0.0,0.0,-9.188127517700195,20.742448806762695,93.0,0.0,0.0,0.0,0.0,-77.0,494.0,0.0,0.0,0.0,0.0,0.0,0.0,0.0005235987755982988,0.0,0.0,0.0,18.912129999999998,0.0,4.337336223018903e-06,0.0,0.0,0.0,1.2118760541051843e-05,0.0,0.0,-7.974654157307543e-05,0.0,0.0,1500.0,0.0,0.0,0.0,-1.0397933721542358,1500.0,-0.8650798201560974,-0.18565034866333008,-17.0,0.01064650843716541,,,,,,,
11.899998999999998,0.0,0.0,1.151394009590149,0.0,1500.0,18.972497999999998,0.0,0.0,-9.16231918334961,20.727317810058594,90.0,0.0,0.0,0.0,0.0,-79.0,494.0,0.0,0.0,0.0,0.0,0.0,0.0,0.0005235987755982988,0.0,0.0,0.0,19.012119,0.0,2.196846605891769e-05,0.0,0.0,0.0,-3.245816572717227e-05,0.0,0.0,-8.731333091895422e-06,0.0,0.0,1500.0,0.0,0.0,0.0,-1.0504579544067383,1500.0,-0.8711670637130737,-0.14894111454486847,-17.0,0.01064650843716541,,,,,,,
12.000022999999999,0.0,0.0,1.1551717519760132,0.0,1500.0,19.092505,0.0,0.0,-9.17949104309082,20.753501892089844,93.0,0.0,0.0,0.0,0.0,-81.0,492.0,0.0,0.0,0.0,0.0,0.0,0.0,0.0005235987755982988,0.0,0.0,0.0,19.112143,0.0,1.1004317675588783e-05,0.0,0.0,0.0,3.140007568522098e-05,0.0,0.0,-0.00014903300756900144,0.0,0.0,1500.0,0.0,0.0,0.0,-0.9544770121574402,1500.0,-0.8684276938438416,-0.11096418648958206,-17.0,0.01064650843716541,,,,,,,
12.100078999999997,0.0,0.0,1.1561470031738281,0.0,1500.0,19.172511,0.0,0.0,-9.159379005432129,20.7974910736084,92.0,0.0,0.0,0.0,0.0,-78.0,493.0,0.0,0.0,0.0,0.0,0.0,0.0,0.0005235987755982988,0.0,0.0,0.0,19.212199,0.0,3.6997073775038197e-06,0.0,0.0,0.0,-2.4256248465348972e-05,0.0,0.0,2.8881530142769297e-05,0.0,0.0,1500.0,0.0,0.0,0.0,-0.8691606521606445,1500.0,-0.8711670637130737,-0.19319166243076324,-17.0,0.01064650843716541,,,,,,,
12.200076999999997,0.0,0.0,1.1721336841583252,0.0,1500.0,19.292499,0.0,0.0,-9.13641357421875,20.80994415283203,92.0,0.0,0.0,0.0,0.0,-79.0,491.0,0.0,0.0,0.0,0.0,0.0,0.0,0.0005235987755982988,0.0,0.0,0.0,19.312196999999998,0.0,2.1172549223247068e-05,0.0,0.0,0.0,-1.2431493059680016e-06,0.0,0.0,-3.931320072721295e-05,0.0,0.0,1500.0,0.0,0.0,0.0,-1.0717869997024536,1500.0,-0.8681231737136841,-0.1270104944705963,-17.0,0.01064650843716541,,,,,,,
12.300011999999999,0.0,0.0,1.1215674877166748,0.0,1500.0,19.372508,0.0,0.0,-9.1801176071167,20.8027286529541,91.0,0.0,0.0,0.0,0.0,-77.0,495.0,0.0,0.0,0.0,0.0,0.0,0.0,0.0005235987755982988,0.0,0.0,0.0,19.412132,0.0,1.137709561598471e-05,0.0,0.0,0.0,1.0763323256251509e-05,0.0,0.0,-4.266321811015344e-05,0.0,0.0,1500.0,0.0,0.0,0.0,-1.0184643268585205,1500.0,-0.8697976469993591,-0.16328813135623932,-17.0,0.01064650843716541,,,,,,,
12.400084,0.0,0.0,1.1357520818710327,0.0,1500.0,19.493023,0.0,0.0,-9.168031692504883,20.815298080444336,92.0,0.0,0.0,0.0,0.0,-74.0,493.0,0.0,0.0,0.0,0.0,0.0,0.0,0.0005235987755982988,0.0,0.0,0.0,19.512204,0.0,9.254361862270081e-06,0.0,0.0,0.0,-2.482462261660425e-06,0.0,0.0,-8.611234832177984e-05,0.0,0.0,1500.0,0.0,0.0,0.0,-0.8211701512336731,1500.0,-0.867058277130127,-0.16648134589195251,-17.0,0.01064650843716541,,,,,,,
12.500079999999997,0.0,0.0,1.1740151643753052,0.0,1500.0,19.573117999999997,0.0,0.0,-9.168752670288086,20.80901336669922,92.0,0.0,0.0,0.0,0.0,-75.0,495.0,0.0,0.0,0.0,0.0,0.0,0.0,0.0005235987755982988,0.0,0.0,0.0,19.612199999999998,0.0,2.074057999189946e-05,0.0,0.0,0.0,6.064524865771345e-06,0.0,0.0,-1.0090779178599083e-05,0.0,0.0,1500.0,0.0,0.0,0.0,-0.8904897570610046,1500.0,-0.8697976469993591,-0.13150683045387268,-17.0,0.01064650843716541,,,,,,,
12.600006999999998,0.0,0.0,1.1535494327545166,0.0,1500.0,19.692529999999998,0.0,0.0,-9.157087326049805,20.791324615478516,90.0,0.0,0.0,0.0,0.0,-76.0,496.0,0.0,0.0,0.0,0.0,0.0,0.0,0.0005235987755982988,0.0,0.0,0.0,19.712127,0.0,1.1368718632129072e-06,0.0,0.0,0.0,-1.1774643604025561e-05,0.0,0.0,-2.6224306061895085e-05,0.0,0.0,1500.0,0.0,0.0,0.0,-0.8958219885826111,1500.0,-0.8650798201560974,-0.1602926254272461,-17.0,0.01064650843716541,,,,,,,
12.700002999999999,0.0,0.0,1.1397956609725952,0.0,1500.0,19.772506999999997,0.0,0.0,-9.170495986938477,20.787017822265625,91.0,0.0,0.0,0.0,0.0,-75.0,496.0,0.0,0.0,0.0,0.0,0.0,0.0,0.0005235987755982988,0.0,0.0,0.0,19.812123,0.0,1.8085308500294935e-05,0.0,0.0,0.0,1.0480064727238072e-05,0.0,0.0,-6.588724173792483e-05,0.0,0.0,1500.0,0.0,0.0,0.0,-0.9544770121574402,1500.0,-0.8684276938438416,-0.14616802334785461,-17.0,0.01064650843716541,,,,,,,
12.800099,0.0,0.0,1.1188850402832031,0.0,1500.0,19.892504,0.0,0.0,-9.175542831420898,20.787017822265625,92.0,0.0,0.0,0.0,0.0,-78.0,498.0,0.0,0.0,0.0,0.0,0.0,0.0,0.0005235987755982988,0.0,0.0,0.0,19.912219,0.0,2.2596037596616645e-05,0.0,0.0,0.0,-4.590743603850294e-06,0.0,0.0,-4.834786581918308e-05,0.0,0.0,1500.0,0.0,0.0,0.0,-0.9598093032836914,1500.0,-0.8684276938438416,-0.15936824679374695,-17.0,0.01064650843716541,,,,,,,
12.900018,0.0,0.0,1.1540292501449585,0.0,1500.0,19.972517999999997,0.0,0.0,-9.163152694702148,20.7901611328125,96.0,0.0,0.0,0.0,0.0,-76.0,496.0,0.0,0.0,0.0,0.0,0.0,0.0,0.0005235987755982988,0.0,0.0,0.0,20.012138,0.0,1.798027301403422e-05,0.0,0.0,0.0,-1.4488526298926724e-05,0.0,0.0,-0.00012752435698070407,0.0,0.0,1500.0,0.0,0.0,0.0,-0.8798251748085022,1500.0,-0.8697976469993591,-0.15340477228164673,-17.0,0.01064650843716541,,,,,,,
13.000098999999999,0.0,0.0,1.1583120822906494,0.0,1500.0,20.092796999999997,0.0,0.0,-9.165313720703125,20.798307418823242,91.0,0.0,0.0,0.0,0.0,-75.0,499.0,0.0,0.0,0.0,0.0,0.0,0.0,0.0005235987755982988,0.0,0.0,0.0,20.112219,0.0,2.8575410471021315e-05,0.0,0.0,0.0,-3.088067271666917e-05,0.0,0.0,-9.31072423538598e-05,0.0,0.0,1500.0,0.0,0.0,0.0,-0.8531638383865356,1500.0,-0.8666017651557922,-0.19294457137584686,-17.0,0.01064650843716541,,,,,,,
13.100030999999998,0.0,0.0,1.1549161672592163,0.0,1500.0,20.172508999999998,0.0,0.0,-9.15065860748291,20.772356033325195,94.0,0.0,0.0,0.0,0.0,-77.0,498.0,0.0,0.0,0.0,0.0,0.0,0.0,0.0005235987755982988,0.0,0.0,0.0,20.212151,0.0,1.243369734197341e-05,0.0,0.0,0.0,-9.22023015483318e-06,0.0,0.0,-2.9765079835049355e-05,0.0,0.0,1500.0,0.0,0.0,0.0,-0.9064865708351135,1500.0,-0.8684276938438416,-0.14790380001068115,-17.0,0.01064650843716541,,,,,,,
13.200012999999998,0.0,0.0,1.1632121801376343,0.0,1500.0,20.292506,0.0,0.0,-9.161027908325195,20.761882781982422,94.0,0.0,0.0,0.0,0.0,-77.0,491.0,0.0,0.0,0.0,0.0,0.0,0.0,0.0005235987755982988,0.0,0.0,0.0,20.312133,0.0,1.7150455083707246e-05,0.0,0.0,0.0,3.8248399548573016e-05,0.0,0.0,-6.583812426341344e-05,0.0,0.0,1500.0,0.0,0.0,0.0,-0.9278156757354736,1500.0,-0.86431884765625,-0.15378378331661224,-17.0,0.01064650843716541,,,,,,,
13.300014999999998,0.0,0.0,1.1598536968231201,0.0,1500.0,20.372515999999997,0.0,0.0,-9.166868209838867,20.71160888671875,92.0,0.0,0.0,0.0,0.0,-75.0,495.0,0.0,0.0,0.0,0.0,0.0,0.0,0.0005235987755982988,0.0,0.0,0.0,20.412135,0.0,3.015412664358513e-05,0.0,0.0,0.0,-1.4848717048348955e-05,0.0,0.0,-3.7568020731873853e-06,0.0,0.0,1500.0,0.0,0.0,0.0,-0.9118188619613647,1500.0,-0.8725365400314331,-0.17795974016189575,-17.0,0.01064650843716541,,,,,,,
13.400011,0.0,0.0,1.1566448211669922,0.0,1500.0,20.493121,0.0,0.0,-9.150957107543945,20.73779296875,94.0,0.0,0.0,0.0,0.0,-76.0,494.0,0.0,0.0,0.0,0.0,0.0,0.0,0.0005235987755982988,0.0,0.0,0.0,20.512131,0.0,2.4745876987326365e-05,0.0,0.0,0.0,5.676253708592181e-06,0.0,0.0,-6.683217709827547e-05,0.0,0.0,1500.0,0.0,0.0,0.0,-1.0451257228851318,1500.0,-0.8602100014686584,-0.10255691409111023,-17.0,0.01064650843716541,,,,,,,
13.500014999999998,0.0,0.0,1.1306031942367554,0.0,1500.0,20.573116,0.0,0.0,-9.18381118774414,20.73197364807129,93.0,0.0,0.0,0.0,0.0,-75.0,490.0,0.0,0.0,0.0,0.0,0.0,0.0,0.0005235987755982988,0.0,0.0,0.0,20.612135,0.0,1.342635227733748e-05,0.0,0.0,0.0,-1.3458863599818528e-05,0.0,0.0,-6.216058390449301e-05,0.0,0.0,1500.0,0.0,0.0,0.0,-0.8958219885826111,1500.0,-0.8696456551551819,-0.15456104278564453,-17.0,0.01064650843716541,,,,,,,
13.600006999999998,0.0,0.0,1.1559590101242065,0.0,1500.0,20.692555,0.0,0.0,-9.161516189575195,20.741981506347656,92.0,0.0,0.0,0.0,0.0,-76.0,495.0,0.0,0.0,0.0,0.0,0.0,0.0,0.0005235987755982988,0.0,0.0,0.0,20.712127,0.0,6.3551122079957764e-06,0.0,0.0,0.0,-1.604076263834047e-05,0.0,0.0,-2.1897882293423716e-05,0.0,0.0,1500.0,0.0,0.0,0.0,-0.8265024423599243,1500.0,-0.86431884765625,-0.1452482044696808,-17.0,0.01064650843716541,,,,,,,
13.700009999999999,0.0,0.0,1.1567145586013794,0.0,1500.0,20.772541999999998,0.0,0.0,-9.154085159301758,20.6927547454834,90.0,0.0,0.0,0.0,0.0,-76.0,499.0,0.0,0.0,0.0,0.0,0.0,0.0,0.0005235987755982988,0.0,0.0,0.0,20.81213,0.0,2.2421946281522522e-05,0.0,0.0,0.0,1.8434966239546443e-05,0.0,0.0,-0.00014098772210136234,0.0,0.0,1500.0,0.0,0.0,0.0,-0.7571828961372375,1500.0,-0.8697976469993591,-0.14946892857551575,-17.0,0.01064650843716541,,,,,,,
13.800023,0.0,0.0,1.1421401500701904,0.0,1500.0,20.892499,0.0,0.0,-9.18070125579834,20.744773864746094,93.0,0.0,0.0,0.0,0.0,-77.0,494.0,0.0,0.0,0.0,0.0,0.0,0.0,0.0005235987755982988,0.0,0.0,0.0,20.912143,0.0,1.2726968732507165e-05,0.0,0.0,0.0,-2.366214321054392e-05,0.0,0.0,-9.006332432436063e-05,0.0,0.0,1500.0,0.0,0.0,0.0,-0.8798251748085022,1500.0,-0.8635584115982056,-0.1754639446735382,-17.0,0.01064650843716541,,,,,,,
13.900018999999997,0.0,0.0,1.1808456182479858,0.0,1500.0,20.972535,0.0,0.0,-9.166509628295898,20.70427703857422,93.0,0.0,0.0,0.0,0.0,-74.0,491.0,0.0,0.0,0.0,0.0,0.0,0.0,0.0005235987755982988,0.0,0.0,0.0,21.012138999999998,0.0,1.36516873777346e-05,0.0,0.0,0.0,-2.7900487119659412e-05,0.0,0.0,-2.0993203594051578e-05,0.0,0.0,1500.0,0.0,0.0,0.0,-0.8051733374595642,1500.0,-0.8766459226608276,-0.1553395390510559,-17.0,0.01064650843716541,,,,,,,
14.000013999999997,0.0,0.0,1.1940209865570068,0.0,1500.0,21.092509,0.0,0.0,-9.142701148986816,20.68123435974121,91.0,0.0,0.0,0.0,0.0,-79.0,491.0,0.0,0.0,0.0,0.0,0.0,0.0,0.0005235987755982988,0.0,0.0,0.0,21.112133999999998,0.0,1.4725224412321485e-05,0.0,0.0,0.0,1.3478006492434937e-05,0.0,0.0,8.445534977732992e-05,0.0,0.0,1500.0,0.0,0.0,0.0,-0.8478315472602844,1500.0,-0.8739064931869507,-0.07502730190753937,-17.0,0.01064650843716541,,,,,,,
14.100014999999999,0.0,0.0,1.136370062828064,0.0,1500.0,21.172521,0.0,0.0,-9.186777114868164,20.775497436523438,92.0,0.0,0.0,0.0,0.0,-77.0,490.0,0.0,0.0,0.0,0.0,0.0,0.0,0.0005235987755982988,0.0,0.0,0.0,21.212135,0.0,8.162984846481133e-06,0.0,0.0,0.0,5.5794866556337884e-05,0.0,0.0,-6.7353286804586425e-06,0.0,0.0,1500.0,0.0,0.0,0.0,-0.8158379197120667,1500.0,-0.8766459226608276,-0.1514151245355606,-17.0,0.01064650843716541,,,,,,,
14.200000999999997,0.0,0.0,1.1402349472045898,0.0,1500.0,21.292510999999998,0.0,0.0,-9.164693832397461,20.80179786682129,92.0,0.0,0.0,0.0,0.0,-76.0,493.0,0.0,0.0,0.0,0.0,0.0,0.0,0.0005235987755982988,0.0,0.0,0.0,21.312120999999998,0.0,1.3494805668378522e-05,0.0,0.0,0.0,-1.5927837553605042e-05,0.0,0.0,-1.794560998287825e-05,0.0,0.0,1500.0,0.0,0.0,0.0,-0.8531638383865356,1500.0,-0.8818197250366211,-0.14324072003364563,-17.0,0.01064650843716541,,,,,,,
14.300089999999997,0.0,0.0,1.1584261655807495,0.0,1500.0,21.372518,0.0,0.0,-9.171235084533691,20.80901336669922,92.0,0.0,0.0,0.0,0.0,-77.0,495.0,0.0,0.0,0.0,0.0,0.0,0.0,0.0005235987755982988,0.0,0.0,0.0,21.412209999999998,0.0,1.8393957801221654e-05,0.0,0.0,0.0,-2.2516617399557764e-05,0.0,0.0,4.058712604528412e-05,0.0,0.0,1500.0,0.0,0.0,0.0,-0.8318347334861755,1500.0,-0.8739064931869507,-0.07344520092010498,-17.0,0.01064650843716541,,,,,,,
14.400015,0.0,0.0,1.0926470756530762,0.0,1500.0,21.493123,0.0,0.0,-9.207986831665039,20.815298080444336,91.0,0.0,0.0,0.0,0.0,-75.0,495.0,0.0,0.0,0.0,0.0,0.0,0.0,0.0005235987755982988,0.0,0.0,0.0,21.512135,0.0,4.803730862926132e-05,0.0,0.0,0.0,-6.753420303888647e-05,0.0,0.0,-0.00021280388229460247,0.0,0.0,1500.0,0.0,0.0,0.0,-0.6612019538879395,1500.0,-0.8766459226608276,-0.3464442193508148,-17.0,0.01064650843716541,,,,,,,
14.50001,0.0,0.0,1.2054747343063354,0.0,1500.0,21.573227,0.0,0.0,-9.084692001342773,20.827865600585938,93.0,0.0,0.0,0.0,0.0,-73.0,497.0,0.0,0.0,0.0,0.0,0.0,0.0,0.0005235987755982988,0.0,0.0,0.0,21.61213,0.0,2.9199416145902056e-05,0.0,0.0,0.0,-5.272537590608086e-05,0.0,0.0,-6.326212058156787e-05,0.0,0.0,1500.0,0.0,0.0,0.0,-0.9438124895095825,1500.0,-0.8684276938438416,-0.03625909239053726,-17.0,0.01064650843716541,,,,,,,
14.600002999999997,0.0,0.0,1.13386869430542,0.0,1500.0,21.692508,0.0,0.0,-9.192390441894531,20.834383010864258,92.0,0.0,0.0,0.0,0.0,-74.0,498.0,0.0,0.0,0.0,0.0,0.0,0.0,0.0005235987755982988,0.0,0.0,0.0,21.712123,0.0,1.5701438789854455e-05,0.0,0.0,0.0,5.931576902558211e-05,0.0,0.0,-0.0001538523961254032,0.0,0.0,1500.0,0.0,0.0,0.0,-0.8744929432868958,1500.0,-0.8635584115982056,-0.2375776469707489,-17.0,0.01064650843716541,,,,,,,
14.700015999999998,0.0,0.0,1.1696336269378662,0.0,1500.0,21.772498,0.0,0.0,-9.155805587768555,20.8299617767334,94.0,0.0,0.0,0.0,0.0,-73.0,492.0,0.0,0.0,0.0,0.0,0.0,0.0,0.0005235987755982988,0.0,0.0,0.0,21.812136,0.0,9.11463997880074e-06,0.0,0.0,0.0,-2.5898786470951486e-05,0.0,0.0,0.00012940161409663302,0.0,0.0,1500.0,0.0,0.0,0.0,-0.8904897570610046,1500.0,-0.8684276938438416,-0.11937934160232544,-17.0,0.01064650843716541,,,,,,,
14.800023,0.0,0.0,1.1494417190551758,0.0,1500.0,21.892509,0.0,0.0,-9.195592880249023,20.827865600585938,96.0,0.0,0.0,0.0,0.0,-75.0,492.0,0.0,0.0,0.0,0.0,0.0,0.0,0.0005235987755982988,0.0,0.0,0.0,21.912143,0.0,1.611236536691327e-05,0.0,0.0,0.0,4.398862595363082e-05,0.0,0.0,-0.0002628694577585251,0.0,0.0,1500.0,0.0,0.0,0.0,-0.8318347334861755,1500.0,-0.8684276938438416,-0.12685498595237732,-17.0,0.01064650843716541,,,,,,,
14.900080999999997,0.0,0.0,1.1445518732070923,0.0,1500.0,21.972514999999998,0.0,0.0,-9.184005737304688,20.82577133178711,95.0,0.0,0.0,0.0,0.0,-75.0,496.0,0.0,0.0,0.0,0.0,0.0,0.0,0.0005235987755982988,0.0,0.0,0.0,22.012200999999997,0.0,3.138582036127079e-05,0.0,0.0,0.0,-6.461531574122867e-05,0.0,0.0,1.8946386145412918e-05,0.0,0.0,1500.0,0.0,0.0,0.0,-0.5865501165390015,1500.0,-0.867058277130127,-0.22061342000961304,-17.0,0.01064650843716541,,,,,,,
15.000000999999997,0.0,0.0,1.1941332817077637,0.0,1500.0,22.092506999999998,0.0,0.0,-9.15324878692627,20.8250732421875,95.0,0.0,0.0,0.0,0.0,-74.0,498.0,0.0,0.0,0.0,0.0,0.0,0.0,0.0005235987755982988,0.0,0.0,0.0,22.112121,0.0,1.5826057060070696e-05,0.0,0.0,0.0,2.0496788757650917e-05,0.0,0.0,-0.00015139459622436242,0.0,0.0,1500.0,0.0,0.0,0.0,-0.9384801983833313,1500.0,-0.8666017651557922,-0.06505493074655533,-17.0,0.01064650843716541,,,,,,,
15.100016999999998,0.0,0.0,1.1102014780044556,0.0,1500.0,22.172508999999998,0.0,0.0,-9.191635131835938,20.82577133178711,95.0,0.0,0.0,0.0,0.0,-74.0,494.0,0.0,0.0,0.0,0.0,0.0,0.0,0.0005235987755982988,0.0,0.0,0.0,22.212137,0.0,6.7587668631022345e-06,0.0,0.0,0.0,-9.264636829946268e-06,0.0,0.0,-5.60821633487993e-05,0.0,0.0,1500.0,0.0,0.0,0.0,-0.7785120010375977,1500.0,-0.8684276938438416,-0.2350708693265915,-17.0,0.01064650843716541,,,,,,,
15.199984999999998,0.0,0.0,1.171790599822998,0.0,1500.0,22.292527,0.0,0.0,-9.127056121826172,20.8299617767334,94.0,0.0,0.0,0.0,0.0,-75.0,492.0,0.0,0.0,0.0,0.0,0.0,0.0,0.0005235987755982988,0.0,0.0,0.0,22.312105,0.0,1.9259661924765318e-05,0.0,0.0,0.0,-2.5122354891364435e-05,0.0,0.0,4.96781216106287e-05,0.0,0.0,1500.0,0.0,0.0,0.0,-0.5865501165390015,1500.0,-0.8629499077796936,-0.08683261275291443,-17.0,0.01064650843716541,,,,,,,
15.299997999999999,0.0,0.0,1.129438877105713,0.0,1500.0,22.372578,0.0,0.0,-9.158174514770508,20.82158088684082,92.0,0.0,0.0,0.0,0.0,-75.0,493.0,0.0,0.0,0.0,0.0,0.0,0.0,0.0005235987755982988,0.0,0.0,0.0,22.412118,0.0,1.9515380005021216e-05,0.0,0.0,0.0,2.9036989570659422e-05,0.0,0.0,-0.00015921794076473135,0.0,0.0,1500.0,0.0,0.0,0.0,-0.9011542797088623,1500.0,-0.8656883239746094,-0.21249572932720184,-17.0,0.01064650843716541,,,,,,,
15.400104999999996,0.0,0.0,1.1527211666107178,0.0,1500.0,22.493022999999997,0.0,0.0,-9.161526679992676,20.8250732421875,90.0,0.0,0.0,0.0,0.0,-74.0,493.0,0.0,0.0,0.0,0.0,0.0,0.0,0.0005235987755982988,0.0,0.0,0.0,22.512224999999997,0.0,2.5917072946942326e-05,0.0,0.0,0.0,-2.6866868446245198e-05,0.0,0.0,1.5769520355883685e-05,0.0,0.0,1500.0,0.0,0.0,0.0,-0.8424992561340332,1500.0,-0.8696456551551819,-0.2445860207080841,-17.0,0.01064650843716541,,,,,,,
15.500083999999998,0.0,0.0,1.1206166744232178,0.0,1500.0,22.573107999999998,0.0,0.0,-9.145265579223633,20.82158088684082,92.0,0.0,0.0,0.0,0.0,-74.0,492.0,0.0,0.0,0.0,0.0,0.0,0.0,0.0005235987755982988,0.0,0.0,0.0,22.612204,0.0,9.911852106520715e-06,0.0,0.0,0.0,6.955482206292224e-05,0.0,0.0,-0.00022411703416770853,0.0,0.0,1500.0,0.0,0.0,0.0,-0.7571828961372375,1500.0,-0.8684276938438416,-0.03230588138103485,-17.0,0.01064650843716541,,,,,,,
15.600001999999996,0.0,0.0,1.259209394454956,0.0,1500.0,22.692501999999998,0.0,0.0,-9.207717895507812,20.822629928588867,96.0,0.0,0.0,0.0,0.0,-75.0,491.0,0.0,0.0,0.0,0.0,0.0,0.0,0.0005235987755982988,0.0,0.0,0.0,22.712121999999997,0.0,2.750630587503154e-05,0.0,0.0,0.0,-7.424680670926516e-05,0.0,0.0,9.693644668098691e-05,0.0,0.0,1500.0,0.0,0.0,0.0,-0.7785120010375977,1500.0,-0.867058277130127,-0.2773972451686859,-17.0,0.01064650843716541,,,,,,,
15.700080999999997,0.0,0.0,1.1249545812606812,0.0,1500.0,22.772517,0.0,0.0,-9.122285842895508,20.814250946044922,93.0,0.0,0.0,0.0,0.0,-75.0,490.0,0.0,0.0,0.0,0.0,0.0,0.0,0.0005235987755982988,0.0,0.0,0.0,22.812200999999998,0.0,6.881561768479121e-05,0.0,0.0,0.0,-9.206357221414262e-05,0.0,0.0,5.3688329540774475e-05,0.0,0.0,1500.0,0.0,0.0,0.0,-0.6345406174659729,1500.0,-0.8684276938438416,0.110847108066082,-17.0,0.01064650843716541,,,,,,,
15.800072999999998,0.0,0.0,1.0453904867172241,-59.6605389,1500.0,22.892514,0.0,0.0,-9.180402755737305,20.826236724853516,96.0,0.0,0.0,0.0,48.9594443,-75.0,490.0,0.0,0.0,0.0,0.0,0.0,0.0,0.0005235987755982988,0.0,0.0,0.0,22.912193,0.0,1.1317089560936103e-05,0.0,0.0,0.0,4.993271812035716e-05,0.0,0.0,-0.0002536124535004743,0.0,0.0,1500.0,0.0,0.0,0.0,-0.8584960699081421,1500.0,-0.8589920401573181,-0.0818641260266304,12134.67,0.01064650843716541,,,,,,,
15.900081999999998,0.0,0.0,1.3273749351501465,-59.6605389,1500.0,22.9725,0.0,0.0,-9.169513702392578,20.7974910736084,95.0,0.0,0.0,0.0,48.9594443,-77.0,494.0,0.0,0.0,0.0,0.0,0.0,0.0,0.0005235987755982988,0.0,0.0,0.0,23.012202,0.0,4.395773196835963e-06,0.0,0.0,0.0,5.314833396842632e-05,0.0,0.0,0.00014064806503264715,0.0,0.0,1500.0,0.0,0.0,0.0,-0.6665342450141907,1500.0,-0.8697976469993591,-0.21554067730903625,12134.67,0.01064650843716541,,,,,,,
16.000076999999997,0.0,0.0,1.5246742963790894,-59.6594109,1500.0,23.092505,0.0,0.0,-9.382969856262207,20.805870056152344,94.0,0.0,0.0,0.0,48.960641599999995,-80.0,492.0,0.0,0.0,0.0,0.0,0.0,0.0,0.0005235987755982988,0.0,0.0,0.0,23.112197,0.0,-0.0006589209943868026,0.0,0.0,0.0,0.00024590355791784,0.0,0.0,9.003452922016705e-05,0.0,0.0,1500.0,0.0,0.0,0.0,-0.7945088148117065,1500.0,-0.8588400483131409,-0.0861763060092926,12135.11,0.01064650843716541,,,,,,,
16.100008999999996,0.0,0.0,2.017442226409912,-59.6594109,1500.0,23.172535999999997,0.0,0.0,-9.220107078552246,20.793304443359375,95.0,0.0,0.0,0.0,48.960641599999995,-78.0,492.0,0.0,0.0,0.0,0.0,0.0,0.0,0.0005235987755982988,0.0,0.0,0.0,23.212128999999997,0.0,-0.0018425713282695078,0.0,0.0,0.0,-9.09456671092253e-05,0.0,0.0,-5.601738045985575e-05,0.0,0.0,1500.0,0.0,0.0,0.0,-0.7838442921638489,1500.0,-0.86431884765625,-0.17600974440574646,12135.11,0.01064650843716541,,,,,,,
16.199986,0.0,0.0,2.6764848232269287,-59.658282799999995,1500.0,23.292509,0.0,0.0,-9.026457786560059,20.818090438842773,101.0,0.0,0.0,0.0,48.961839,-79.0,485.0,0.0,0.0,0.0,0.0,0.0,0.0,0.0005235987755982988,0.0,0.0,0.0,23.312106,0.0,-0.0020560493069603915,0.0,0.0,0.0,-0.0007500348483112077,0.0,0.0,0.00010755002300126478,0.0,0.0,1500.0,0.0,0.0,0.0,-0.6931955814361572,1500.0,-0.8635584115982056,-0.17104673385620117,12135.550000000001,0.01064650843716541,,,,,,,
16.300085,0.0,0.0,2.282539129257202,-59.658282799999995,1500.0,23.372546,0.0,0.0,-9.132859230041504,20.80377769470215,105.0,0.0,0.0,0.0,48.961839,-77.0,485.0,0.0,0.0,0.0,0.0,0.0,0.0,0.0005235987755982988,0.0,0.0,0.0,23.412205,0.0,-0.0025638015146556893,0.0,0.0,0.0,-0.0009410834970479296,0.0,0.0,0.0002693203900847975,0.0,0.0,1500.0,0.0,0.0,0.0,-0.7785120010375977,1500.0,-0.8711670637130737,-0.148343026638031,12135.550000000001,0.01064650843716541,,,,,,,
16.400085999999998,0.0,0.0,2.272982358932495,-59.6571546,1500.0,23.493026,0.0,0.0,-9.2028169631958,20.79539680480957,111.0,0.0,0.0,0.0,48.9630362,-73.0,484.0,0.0,0.0,0.0,0.0,0.0,0.0,0.0005235987755982988,0.0,0.0,0.0,23.512206,0.0,-0.0033118837249332725,0.0,0.0,0.0,-0.00013588985896124942,0.0,0.0,-0.00030957098808059153,0.0,0.0,1500.0,0.0,0.0,0.0,-0.7838442921638489,1500.0,-0.861579418182373,-0.2018497884273529,12135.98,0.01064650843716541,,,,,,,
16.500080999999998,0.0,0.0,1.1842069625854492,-59.6571546,1500.0,23.573237,0.0,0.0,-9.065908432006836,20.7503604888916,119.0,0.0,0.0,0.0,48.9630362,-75.0,480.0,0.0,0.0,0.0,0.0,0.0,0.0,0.0005235987755982988,0.0,0.0,0.0,23.612201,0.0,-0.0040146279583211835,0.0,0.0,0.0,0.00018908235680102428,0.0,0.0,-6.000425484663722e-05,0.0,0.0,1500.0,0.0,0.0,0.0,-0.7145246863365173,1500.0,-0.8684276938438416,-0.3200273811817169,12135.98,0.01064650843716541,,,,,,,
16.600077,0.0,0.0,-0.12737399339675903,-59.656026399999995,1500.0,23.692505999999998,0.0,0.0,-9.428144454956055,20.77503204345703,133.0,0.0,0.0,0.0,48.9642335,-78.0,478.0,0.0,0.0,0.0,0.0,0.0,0.0,0.0005235987755982988,0.0,0.0,0.0,23.712197,0.0,-0.0025620176648591215,0.0,0.0,0.0,-0.00021642645757035574,0.0,0.0,0.0008990115985527386,0.0,0.0,1500.0,0.0,0.0,0.0,-0.6665342450141907,1500.0,-0.8666017651557922,-0.004001982510089874,12136.42,0.01064650843716541,,,,,,,
16.700101999999998,0.0,0.0,0.6754109859466553,-59.656026399999995,1500.0,23.772496999999998,0.0,0.0,-8.868744850158691,20.792255401611328,142.0,0.0,0.0,0.0,48.9642335,-78.0,479.0,0.0,0.0,0.0,0.0,0.0,0.0,0.0005235987755982988,0.0,0.0,0.0,23.812222,0.0,-0.0004168476485840999,0.0,0.0,0.0,-0.0004626913074898388,0.0,0.0,-0.0012722949121264698,0.0,0.0,1500.0,0.0,0.0,0.0,-0.6825310587882996,1500.0,-0.8725365400314331,-0.7540007829666138,12136.42,0.01064650843716541,,,,,,,
16.800078,0.0,0.0,0.6097933053970337,-59.654897999999996,1500.0,23.892505999999997,0.0,0.0,-9.807205200195312,20.7974910736084,138.0,0.0,0.0,0.0,48.9654306,-78.0,477.0,0.0,0.0,0.0,0.0,0.0,0.0,0.0005235987755982988,0.0,0.0,0.0,23.912198,0.0,0.0013665930510700797,0.0,0.0,0.0,7.797384246320078e-05,0.0,0.0,0.0008772518949673937,0.0,0.0,1500.0,0.0,0.0,0.0,-0.7091924548149109,1500.0,-0.86431884765625,0.3889336585998535,12136.86,0.01064650843716541,,,,,,,
16.899986,0.0,0.0,1.1174923181533813,-59.654897999999996,1500.0,23.972438999999998,0.0,0.0,-9.063438415527344,20.76921272277832,136.0,0.0,0.0,0.0,48.9654306,-78.0,479.0,0.0,0.0,0.0,0.0,0.0,0.0,0.0005235987755982988,0.0,0.0,0.0,24.012106,0.0,0.0007604757271522281,0.0,0.0,0.0,-0.0005044257920573695,0.0,0.0,-0.0016463418689375785,0.0,0.0,1500.0,0.0,0.0,0.0,-0.5972146987915039,1500.0,-0.8656883239746094,-0.24896132946014404,12136.86,0.01064650843716541,,,,,,,
16.999986999999997,0.0,0.0,0.7245358824729919,-59.8395217,1500.0,24.092506,0.0,0.0,-9.453534126281738,20.798307418823242,134.0,0.0,0.0,0.0,49.1296451,-78.0,476.0,0.0,0.0,0.0,0.0,0.0,0.0,0.0005235987755982988,0.0,0.0,0.0,24.112106999999998,0.0,0.0008507505162849468,0.0,0.0,0.0,0.0001687635625051762,0.0,0.0,0.0009762151821379147,0.0,0.0,1500.0,0.0,0.0,0.0,-0.7091924548149109,1500.0,-0.8635584115982056,-0.009765980765223503,12198.04,0.01064650843716541,,,,,,,
17.100011,0.0,0.0,1.0263757705688477,-59.8395217,1500.0,24.172508,0.0,0.0,-9.062170028686523,20.78282928466797,132.0,0.0,0.0,0.0,49.1296451,-75.0,478.0,0.0,0.0,0.0,0.0,0.0,0.0,0.0005235987755982988,0.0,0.0,0.0,24.212131,0.0,-0.0005000487086549115,0.0,0.0,0.0,0.0003790249419419483,0.0,0.0,-0.0004378955287413641,0.0,0.0,1500.0,0.0,0.0,0.0,-0.6558696627616882,1500.0,-0.8684276938438416,0.2717245817184448,12198.04,0.01064650843716541,,,,,,,
17.200021,0.0,0.0,0.7266179919242859,-59.838386099999994,1500.0,24.292506,0.0,0.0,-9.261985778808594,20.800634384155273,132.0,0.0,0.0,0.0,49.1308425,-76.0,478.0,0.0,0.0,0.0,0.0,0.0,0.0,0.0005235987755982988,0.0,0.0,0.0,24.312141,0.0,-0.0008695200153162697,0.0,0.0,0.0,0.000805279901489421,0.0,0.0,-0.00038202008790814924,0.0,0.0,1500.0,0.0,0.0,0.0,-0.8904897570610046,1500.0,-0.8629499077796936,-0.8492819666862488,12198.48,0.01064650843716541,,,,,,,
17.299996999999998,0.0,0.0,0.5987366437911987,-59.838386099999994,1500.0,24.372521,0.0,0.0,-9.176385879516602,20.807966232299805,137.0,0.0,0.0,0.0,49.1308425,-75.0,481.0,0.0,0.0,0.0,0.0,0.0,0.0,0.0005235987755982988,0.0,0.0,0.0,24.412117,0.0,-0.0009621486721478198,0.0,0.0,0.0,0.0005101894942339381,0.0,0.0,0.0005657950104268829,0.0,0.0,1500.0,0.0,0.0,0.0,-0.7945088148117065,1500.0,-0.8711670637130737,-0.24195769429206848,12198.48,0.01064650843716541,,,,,,,
17.400024,0.0,0.0,0.792851448059082,-59.837250299999994,1500.0,24.493214,0.0,0.0,-8.581478118896484,20.835546493530273,139.0,0.0,0.0,0.0,49.132039899999995,-78.0,474.0,0.0,0.0,0.0,0.0,0.0,0.0,0.0005235987755982988,0.0,0.0,0.0,24.512144,0.0,-0.00018927282873494486,0.0,0.0,0.0,0.000851224436724048,0.0,0.0,-0.0002260461679841928,0.0,0.0,1500.0,0.0,0.0,0.0,-0.5812178254127502,1500.0,-0.8696456551551819,0.23199915885925293,12198.92,0.01064650843716541,,,,,,,
17.499996999999997,0.0,0.0,0.646192193031311,-59.837250299999994,1500.0,24.573054,0.0,0.0,-9.2528076171875,20.82577133178711,141.0,0.0,0.0,0.0,49.132039899999995,-77.0,472.0,0.0,0.0,0.0,0.0,0.0,0.0,0.0005235987755982988,0.0,0.0,0.0,24.612116999999998,0.0,0.0008616237686916172,0.0,0.0,0.0,0.0005939158719323693,0.0,0.0,-0.00014319931288966247,0.0,0.0,1500.0,0.0,0.0,0.0,-0.7198569774627686,1500.0,-0.8697976469993591,-0.3847939670085907,12198.92,0.01064650843716541,,,,,,,
17.600022,0.0,0.0,0.6673924326896667,-59.8361145,1500.0,24.692534,0.0,0.0,-9.468366622924805,20.832054138183594,141.0,0.0,0.0,0.0,49.133237199999996,-79.0,477.0,0.0,0.0,0.0,0.0,0.0,0.0,0.0005235987755982988,0.0,0.0,0.0,24.712142,0.0,0.0006158511907058075,0.0,0.0,0.0,-0.00038669365604133873,0.0,0.0,-8.307775233137468e-05,0.0,0.0,1500.0,0.0,0.0,0.0,-0.6292083263397217,1500.0,-0.8684276938438416,1.1921634674072266,12199.35,0.01064650843716541,,,,,,,
17.699997,0.0,0.0,0.10613606125116348,-59.8361145,1500.0,24.772522,0.0,0.0,-10.311081886291504,20.827865600585938,142.0,0.0,0.0,0.0,49.133237199999996,-81.0,477.0,0.0,0.0,0.0,0.0,0.0,0.0,0.0005235987755982988,0.0,0.0,0.0,24.812117,0.0,-0.0018183457949883315,0.0,0.0,0.0,-0.00018350174694939852,0.0,0.0,-0.0003874246599509032,0.0,0.0,1500.0,0.0,0.0,0.0,-0.48523691296577454,1500.0,-0.8711670637130737,0.37679946422576904,12199.35,0.01064650843716541,,,,,,,
17.800029,0.0,0.0,0.8921493887901306,-60.0278163,1500.0,24.892504,0.0,0.0,-8.08609390258789,20.83321762084961,146.0,0.0,0.0,0.0,49.302257,-78.0,477.0,0.0,0.0,0.0,0.0,0.0,0.0,0.0005235987755982988,0.0,0.0,0.0,24.912149,0.0,-0.00014363826958666923,0.0,0.0,0.0,0.0006222080573995831,0.0,0.0,0.00029565164764927104,0.0,0.0,1500.0,0.0,0.0,0.0,-0.6505374312400818,1500.0,-0.8696456551551819,-2.1673457622528076,12262.220000000001,0.01064650843716541,,,,,,,
17.899984999999997,0.0,0.0,0.2523055672645569,-60.0278163,1500.0,24.972509,0.0,0.0,-9.349870681762695,20.80901336669922,145.0,0.0,0.0,0.0,49.302257,-78.0,482.0,0.0,0.0,0.0,0.0,0.0,0.0,0.0005235987755982988,0.0,0.0,0.0,25.012105,0.0,0.0010610838062726376,0.0,0.0,0.0,0.0006947657382579131,0.0,0.0,0.0012900053234869847,0.0,0.0,1500.0,0.0,0.0,0.0,-0.7145246863365173,1500.0,-0.8684276938438416,1.0493121147155762,12262.220000000001,0.01064650843716541,,,,,,,
18.000010999999997,0.0,0.0,0.45917320251464844,-60.026672999999995,1500.0,25.092741,0.0,0.0,-9.386543273925781,20.770261764526367,139.0,0.0,0.0,0.0,49.303454599999995,-73.0,482.0,0.0,0.0,0.0,0.0,0.0,0.0,0.0005235987755982988,0.0,0.0,0.0,25.112130999999998,0.0,0.0012188857886284462,0.0,0.0,0.0,0.0005528462348679295,0.0,0.0,-0.0017726422836345864,0.0,0.0,1500.0,0.0,0.0,0.0,-0.7571828961372375,1500.0,-0.8629499077796936,-1.2337913513183594,12262.66,0.01064650843716541,,,,,,,
18.100004,0.0,0.0,0.6494609713554382,-60.026672999999995,1500.0,25.172575,0.0,0.0,-8.761547088623047,20.796445846557617,140.0,0.0,0.0,0.0,49.303454599999995,-79.0,483.0,0.0,0.0,0.0,0.0,0.0,0.0,0.0005235987755982988,0.0,0.0,0.0,25.212124,0.0,0.0005612997557529108,0.0,0.0,0.0,0.0007565410626862311,0.0,0.0,0.000906868899047192,0.0,0.0,1500.0,0.0,0.0,0.0,-0.7465183734893799,1500.0,-0.8697976469993591,0.2864531874656677,12262.66,0.01064650843716541,,,,,,,
18.200076999999997,0.0,0.0,0.6815775036811829,-60.0255296,1500.0,25.292502,0.0,0.0,-9.073812484741211,20.77852439880371,135.0,0.0,0.0,0.0,49.3046521,-82.0,486.0,0.0,0.0,0.0,0.0,0.0,0.0,0.0005235987755982988,0.0,0.0,0.0,25.312196999999998,0.0,-0.001410098674301534,0.0,0.0,0.0,0.0006874348281976708,0.0,0.0,0.0009087995608003368,0.0,0.0,1500.0,0.0,0.0,0.0,-0.5865501165390015,1500.0,-0.8666017651557922,-0.42275315523147583,12263.1,0.01064650843716541,,,,,,,
18.299992,0.0,0.0,0.32302576303482056,-60.0255296,1500.0,25.372519,0.0,0.0,-9.388776779174805,20.74302864074707,138.0,0.0,0.0,0.0,49.3046521,-80.0,488.0,0.0,0.0,0.0,0.0,0.0,0.0,0.0005235987755982988,0.0,0.0,0.0,25.412112,0.0,-0.0026117441359122698,0.0,0.0,0.0,-0.00018964853860699133,0.0,0.0,-0.00019816031614081807,0.0,0.0,1500.0,0.0,0.0,0.0,-0.7198569774627686,1500.0,-0.8684276938438416,0.8506729602813721,12263.1,0.01064650843716541,,,,,,,
18.400083,0.0,0.0,-0.10627619177103043,-60.024386099999994,1500.0,25.493105,0.0,0.0,-9.754226684570312,20.810060501098633,142.0,0.0,0.0,0.0,49.305849699999996,-77.0,482.0,0.0,0.0,0.0,0.0,0.0,0.0,0.0005235987755982988,0.0,0.0,0.0,25.512203,0.0,-0.00032610687127919863,0.0,0.0,0.0,-0.0006198526942733817,0.0,0.0,-0.0015414271059276923,0.0,0.0,1500.0,0.0,0.0,0.0,-0.7465183734893799,1500.0,-0.8752759695053101,-1.471311092376709,12263.54,0.01064650843716541,,,,,,,
18.500024999999997,0.0,0.0,0.5009852051734924,-60.024386099999994,1500.0,25.573117999999997,0.0,0.0,-8.678091049194336,20.792255401611328,139.0,0.0,0.0,0.0,49.305849699999996,-76.0,486.0,0.0,0.0,0.0,0.0,0.0,0.0,0.0005235987755982988,0.0,0.0,0.0,25.612144999999998,0.0,0.001928144753825531,0.0,0.0,0.0,-0.0005059149126249009,0.0,0.0,0.001799901063770606,0.0,0.0,1500.0,0.0,0.0,0.0,-0.7998411059379578,1500.0,-0.8876029849052429,0.046391915529966354,12263.54,0.01064650843716541,,,,,,,
18.600074,0.0,0.0,-0.24827110767364502,-60.023242599999996,1500.0,25.692494,0.0,0.0,-10.13449478149414,20.787017822265625,137.0,0.0,0.0,0.0,49.3070471,-75.0,483.0,0.0,0.0,0.0,0.0,0.0,0.0,0.0005235987755982988,0.0,0.0,0.0,25.712194,0.0,-0.0009453404586214345,0.0,0.0,0.0,-0.00014115116256010714,0.0,0.0,-0.00025189776721976526,0.0,0.0,1500.0,0.0,0.0,0.0,-0.6771987676620483,1500.0,-0.8834941387176514,-1.3502379655838013,12263.98,0.01064650843716541,,,,,,,
18.700007,0.0,0.0,-0.034372858703136444,-60.023242599999996,1500.0,25.772513,0.0,0.0,-9.179858207702637,20.78783416748047,142.0,0.0,0.0,0.0,49.3070471,-75.0,485.0,0.0,0.0,0.0,0.0,0.0,0.0,0.0005235987755982988,0.0,0.0,0.0,25.812127,0.0,-0.0014970001693992065,0.0,0.0,0.0,0.0007789956198499373,0.0,0.0,0.00032288822393977635,0.0,0.0,1500.0,0.0,0.0,0.0,-0.6185437440872192,1500.0,-0.8894283771514893,-0.07950183749198914,12263.98,0.01064650843716541,,,,,,,
18.800012999999996,0.0,0.0,-0.022428371012210846,-60.022098899999996,1500.0,25.892507,0.0,0.0,-9.021554946899414,20.77654457092285,150.0,0.0,0.0,0.0,49.308244599999995,-76.0,482.0,0.0,0.0,0.0,0.0,0.0,0.0,0.0005235987755982988,0.0,0.0,0.0,25.912132999999997,0.0,-0.0005428019043542626,0.0,0.0,0.0,0.0011087128429116046,0.0,0.0,5.6415570506386945e-05,0.0,0.0,1500.0,0.0,0.0,0.0,-0.7145246863365173,1500.0,-0.8848636150360107,0.11813598871231079,12264.42,0.01064650843716541,,,,,,,
18.900008999999997,0.0,0.0,0.44540539383888245,-60.022098899999996,1500.0,25.972547,0.0,0.0,-8.390974044799805,20.73046112060547,152.0,0.0,0.0,0.0,49.308244599999995,-79.0,483.0,0.0,0.0,0.0,0.0,0.0,0.0,0.0005235987755982988,0.0,0.0,0.0,26.012128999999998,0.0,0.0013695859864045164,0.0,0.0,0.0,0.0017308791583819927,0.0,0.0,0.00025361885783073244,0.0,0.0,1500.0,0.0,0.0,0.0,-0.6345406174659729,1500.0,-0.8862324953079224,-0.4029262065887451,12264.42,0.01064650843716541,,,,,,,
19.000020999999997,0.0,0.0,0.5277289152145386,-60.020955099999995,1500.0,26.092508,0.0,0.0,-9.21744441986084,20.756412506103516,147.0,0.0,0.0,0.0,49.309442,-77.0,486.0,0.0,0.0,0.0,0.0,0.0,0.0,0.0005235987755982988,0.0,0.0,0.0,26.112140999999998,0.0,0.002170094239230856,0.0,0.0,0.0,0.0005924137476485778,0.0,0.0,-0.0003710982341119565,0.0,0.0,1500.0,0.0,0.0,0.0,-0.7091924548149109,1500.0,-0.8848636150360107,-1.5335544347763062,12264.86,0.01064650843716541,,,,,,,
19.100078999999997,0.0,0.0,0.18423712253570557,-60.020955099999995,1500.0,26.1725,0.0,0.0,-8.005044937133789,20.74302864074707,141.0,0.0,0.0,0.0,49.309442,-79.0,491.0,0.0,0.0,0.0,0.0,0.0,0.0,0.0005235987755982988,0.0,0.0,0.0,26.212199,0.0,-1.7033678663945077e-05,0.0,0.0,0.0,0.00030354630131868156,0.0,0.0,0.001600228350410151,0.0,0.0,1500.0,0.0,0.0,0.0,-0.5385596752166748,1500.0,-0.8821241855621338,-0.6196019649505615,12264.86,0.01064650843716541,,,,,,,
19.300106,0.0,0.0,0.08100571483373642,-60.0198113,1500.0,26.372508,0.0,0.0,-9.639360427856445,20.75978660583496,142.0,0.0,0.0,0.0,49.3106393,-82.0,486.0,0.0,0.0,0.0,0.0,0.0,0.0,0.0005235987755982988,0.0,0.0,0.0,26.412226,0.0,-0.0021186031638812048,0.0,0.0,0.0,-0.0008025377428230614,0.0,0.0,-0.0016281289939807716,0.0,0.0,1500.0,0.0,0.0,0.0,-0.6878633499145508,1500.0,-0.8834941387176514,0.0826449766755104,12265.300000000001,0.01064650843716541,,,,,,,
19.400005999999998,0.0,0.0,0.27717581391334534,-60.0198113,1500.0,26.493036999999998,0.0,0.0,-9.18447494506836,20.772705078125,147.0,0.0,0.0,0.0,49.3106393,-83.0,488.0,0.0,0.0,0.0,0.0,0.0,0.0,0.0005235987755982988,0.0,0.0,0.0,26.512126,0.0,0.0006812962938999032,0.0,0.0,0.0,-0.0005714706124257891,0.0,0.0,0.00025089773267542357,0.0,0.0,1500.0,0.0,0.0,0.0,-0.5865501165390015,1500.0,-0.8848636150360107,0.09465323388576508,12265.300000000001,0.01064650843716541,,,,,,,
19.900024,0.0,0.0,0.0622715950012207,-60.0198113,1500.0,26.972555999999997,0.0,0.0,-9.293286323547363,20.744077682495117,148.0,0.0,0.0,0.0,49.3106393,-74.0,481.0,0.0,0.0,0.0,0.0,0.0,0.0,0.0005235987755982988,0.0,0.0,0.0,27.012144,0.0,0.0021495338033776035,0.0,0.0,0.0,0.0008330350984936719,0.0,0.0,0.0017589328556929954,0.0,0.0,1500.0,0.0,0.0,0.0,-0.7305215001106262,1500.0,-0.8944507241249084,0.9036443829536438,12265.300000000001,0.01064650843716541,,,,,,,
20.000009,0.0,0.0,0.3060319423675537,-60.0198113,1500.0,27.052546,0.0,0.0,-9.288995742797852,20.845672607421875,147.0,0.0,0.0,0.0,49.3106393,-74.0,479.0,0.0,0.0,0.0,0.0,0.0,0.0,0.0005235987755982988,0.0,0.0,0.0,27.112129,0.0,0.002427603971513079,0.0,0.0,0.0,-0.00032515704733426646,0.0,0.0,-0.0026326083385773595,0.0,0.0,1500.0,0.0,0.0,0.0,-0.8851574659347534,1500.0,-0.8848636150360107,0.3587990403175354,12265.300000000001,0.01064650843716541,,,,,,,
20.100012999999997,0.0,0.0,0.22697828710079193,-60.0198113,1500.0,27.172576,0.0,0.0,-8.459647178649902,20.840435028076172,139.0,0.0,0.0,0.0,49.3106393,-79.0,483.0,0.0,0.0,0.0,0.0,0.0,0.0,0.0005235987755982988,0.0,0.0,0.0,27.212132999999998,0.0,-0.000732546020275766,0.0,0.0,0.0,0.00022292807188075214,0.0,0.0,0.0006109601029088764,0.0,0.0,1500.0,0.0,0.0,0.0,-0.6825310587882996,1500.0,-0.8876029849052429,-0.18772508203983307,12265.300000000001,0.01064650843716541,,,,,,,
20.200079999999996,0.0,0.0,-0.03991499915719032,-59.8915052,1500.0,27.292509,0.0,0.0,-9.412318229675293,20.842529296875,142.0,0.0,0.0,0.0,49.2100605,-80.0,486.0,0.0,0.0,0.0,0.0,0.0,0.0,0.0005235987755982988,0.0,0.0,0.0,27.312199999999997,0.0,-0.0016169610123450647,0.0,0.0,0.0,-0.00033424069579992405,0.0,0.0,-0.0008890366428653195,0.0,0.0,1500.0,0.0,0.0,0.0,-0.6985278725624084,1500.0,-0.8848636150360107,-0.33496031165122986,12227.85,0.01064650843716541,,,,,,,
20.40008,0.0,0.0,0.008862417191267014,-59.8903654,1500.0,27.493232,0.0,0.0,-9.200217247009277,20.831008911132812,154.0,0.0,0.0,0.0,49.2112574,-79.0,484.0,0.0,0.0,0.0,0.0,0.0,0.0,0.0005235987755982988,0.0,0.0,0.0,27.5122,0.0,0.0015658367718311124,0.0,0.0,0.0,-0.0012941098164873392,0.0,0.0,-0.001969321021363304,0.0,0.0,1500.0,0.0,0.0,0.0,-0.4959014654159546,1500.0,-0.8862324953079224,0.23213452100753784,12228.29,0.01064650843716541,,,,,,,
20.50001,0.0,0.0,-0.40187230706214905,-59.8903654,1500.0,27.573217,0.0,0.0,-10.291036605834961,20.818439483642578,145.0,0.0,0.0,0.0,49.2112574,-75.0,489.0,0.0,0.0,0.0,0.0,0.0,0.0,0.0005235987755982988,0.0,0.0,0.0,27.61213,0.0,-0.0003425762729784257,0.0,0.0,0.0,-0.0015192288520114738,0.0,0.0,-4.482067280219801e-05,0.0,0.0,1500.0,0.0,0.0,0.0,-0.7785120010375977,1500.0,-0.8862324953079224,0.18022575974464417,12228.29,0.01064650843716541,,,,,,,
20.700008999999998,0.0,0.0,-0.20301339030265808,-59.8903654,1500.0,27.772516,0.0,0.0,-9.829545974731445,20.80377769470215,141.0,0.0,0.0,0.0,49.2112574,-80.0,493.0,0.0,0.0,0.0,0.0,0.0,0.0,0.0005235987755982988,0.0,0.0,0.0,27.812129,0.0,-0.0007161933269299737,0.0,0.0,0.0,0.0022832174680928008,0.0,0.0,0.0009804754596590658,0.0,0.0,1500.0,0.0,0.0,0.0,-0.6292083263397217,1500.0,-0.8834941387176514,-0.4335174560546875,12228.29,0.01064650843716541,,,,,,,
20.800102,0.0,0.0,-0.16535067558288574,-59.8903654,1500.0,27.892505999999997,0.0,0.0,-9.899086952209473,20.7503604888916,139.0,0.0,0.0,0.0,49.2112574,-78.0,492.0,0.0,0.0,0.0,0.0,0.0,0.0,0.0005235987755982988,0.0,0.0,0.0,27.912222,0.0,0.0007221446077135951,0.0,0.0,0.0,0.0018418537832062727,0.0,0.0,-0.0011090381958924337,0.0,0.0,1500.0,0.0,0.0,0.0,-0.7038601636886597,1500.0,-0.8834941387176514,1.0718451738357544,12228.29,0.01064650843716541,,,,,,,
21.000099999999996,0.0,0.0,0.1161339059472084,-59.8869456,1500.0,28.092508,0.0,0.0,-9.348003387451172,20.753501892089844,131.0,0.0,0.0,0.0,49.214847999999996,-82.0,486.0,0.0,0.0,0.0,0.0,0.0,0.0,0.0005235987755982988,0.0,0.0,0.0,28.112219999999997,0.0,-0.0009706644808336872,0.0,0.0,0.0,0.0009930116273010846,0.0,0.0,0.0005519241413479222,0.0,0.0,1500.0,0.0,0.0,0.0,-0.6452051401138306,1500.0,-0.8862324953079224,-1.1545424461364746,12229.6,0.01064650843716541,,,,,,,
21.399969,0.0,0.0,-0.16693350672721863,-59.8869456,1500.0,28.132534,0.0,0.0,-10.049232482910156,20.78597068786621,136.0,0.0,0.0,0.0,49.214847999999996,-92.0,478.0,0.0,0.0,0.0,0.0,0.0,0.0,0.0005235987755982988,0.0,0.0,0.0,28.512089,0.0,0.0012085982886207143,0.0,0.0,0.0,-0.0007421304093453114,0.0,0.0,-3.8781133358122146e-05,0.0,0.0,1500.0,0.0,0.0,0.0,-0.6238760352134705,1500.0,-0.8848636150360107,0.3659801781177521,12229.6,0.01064650843716541,,,,,,,
21.499985,0.0,0.0,-0.6245065927505493,-59.8869456,1500.0,28.573121999999998,0.0,0.0,-10.129971504211426,20.747102737426758,135.0,0.0,0.0,0.0,49.214847999999996,-89.0,478.0,0.0,0.0,0.0,0.0,0.0,0.0,0.0005235987755982988,0.0,0.0,0.0,28.612105,0.0,-0.0020163669063465845,0.0,0.0,0.0,-0.0005197624400331747,0.0,0.0,-0.00010622518000671245,0.0,0.0,1500.0,0.0,0.0,0.0,-0.6878633499145508,1500.0,-0.8848636150360107,0.20758305490016937,12229.6,0.01064650843716541,,,,,,,
21.599967,0.0,0.0,0.18357793986797333,-59.8835249,1500.0,28.692425999999998,0.0,0.0,-8.934292793273926,20.77340316772461,144.0,0.0,0.0,0.0,49.218438299999995,-86.0,473.0,0.0,0.0,0.0,0.0,0.0,0.0,0.0005235987755982988,0.0,0.0,0.0,28.712087,0.0,-0.0014467872293207657,0.0,0.0,0.0,-0.0008236041532759963,0.0,0.0,-0.001429905674834673,0.0,0.0,1500.0,0.0,0.0,0.0,-0.6665342450141907,1500.0,-0.8834941387176514,0.16619159281253815,12230.91,0.01064650843716541,,,,,,,
21.699997999999997,0.0,0.0,0.2944228947162628,-59.8835249,1500.0,28.772458999999998,0.0,0.0,-8.207622528076172,20.76397705078125,149.0,0.0,0.0,0.0,49.218438299999995,-86.0,478.0,0.0,0.0,0.0,0.0,0.0,0.0,0.0005235987755982988,0.0,0.0,0.0,28.812117999999998,0.0,-0.00031382788463551504,0.0,0.0,0.0,-0.0004470832069371029,0.0,0.0,-0.000316433796864759,0.0,0.0,1500.0,0.0,0.0,0.0,-0.6612019538879395,1500.0,-0.8862324953079224,-0.30668359994888306,12230.91,0.01064650843716541,,,,,,,
21.900014,0.0,0.0,0.6754016876220703,-59.8823844,1500.0,28.972538999999998,0.0,0.0,-8.167715072631836,20.773868560791016,149.0,0.0,0.0,0.0,49.219635,-83.0,480.0,0.0,0.0,0.0,0.0,0.0,0.0,0.0005235987755982988,0.0,0.0,0.0,29.012134,0.0,0.001929328742191018,0.0,0.0,0.0,-0.00021220920609538036,0.0,0.0,0.0010200984332895636,0.0,0.0,1500.0,0.0,0.0,0.0,-0.5118982791900635,1500.0,-0.8833421468734741,0.21650256216526031,12231.34,0.01064650843716541,,,,,,,
22.100085999999997,0.0,0.0,0.10153379291296005,-59.8823844,1500.0,29.172522999999998,0.0,0.0,-8.546021461486816,20.801681518554688,141.0,0.0,0.0,0.0,49.219635,-84.0,482.0,0.0,0.0,0.0,0.0,0.0,0.0,0.0005235987755982988,0.0,0.0,0.0,29.212206,0.0,-0.0011534873687757245,0.0,0.0,0.0,0.001932169794119536,0.0,0.0,0.003020108940231222,0.0,0.0,1500.0,0.0,0.0,0.0,-0.6185437440872192,1500.0,-0.8821241855621338,-0.14034369587898254,12231.34,0.01064650843716541,,,,,,,
22.200004999999997,0.0,0.0,-0.43330538272857666,-60.0026423,1500.0,29.292509,0.0,0.0,-8.943611145019531,20.800634384155273,148.0,0.0,0.0,0.0,49.3285955,-83.0,478.0,0.0,0.0,0.0,0.0,0.0,0.0,0.0005235987755982988,0.0,0.0,0.0,29.312124999999998,0.0,-0.0008384641500322856,0.0,0.0,0.0,0.0008572168092510515,0.0,0.0,-0.0006481810300717988,0.0,0.0,1500.0,0.0,0.0,0.0,-0.5972146987915039,1500.0,-0.8833421468734741,-0.025259315967559814,12271.89,0.01064650843716541,,,,,,,
22.300093999999998,0.0,0.0,0.12837167084217072,-60.0026423,1500.0,29.372501999999997,0.0,0.0,-8.278963088989258,20.81634521484375,152.0,0.0,0.0,0.0,49.3285955,-86.0,485.0,0.0,0.0,0.0,0.0,0.0,0.0,0.0005235987755982988,0.0,0.0,0.0,29.412214,0.0,0.0009929196910271254,0.0,0.0,0.0,0.0006470615401389623,0.0,0.0,0.00038490440970252303,0.0,0.0,1500.0,0.0,0.0,0.0,-0.5758855938911438,1500.0,-0.8697976469993591,-0.2862027585506439,12271.89,0.01064650843716541,,,,,,,
22.400073999999996,0.0,0.0,0.7447173595428467,-60.0014969,1500.0,29.493022,0.0,0.0,-8.818904876708984,20.819488525390625,149.0,0.0,0.0,0.0,49.3297923,-85.0,487.0,0.0,0.0,0.0,0.0,0.0,0.0,0.0005235987755982988,0.0,0.0,0.0,29.512193999999997,0.0,0.0022261342746026334,0.0,0.0,0.0,0.00044443402484200335,0.0,0.0,0.0006165474746929574,0.0,0.0,1500.0,0.0,0.0,0.0,-0.6558696627616882,1500.0,-0.86431884765625,-0.2615169882774353,12272.32,0.01064650843716541,,,,,,,
22.500079999999997,0.0,0.0,-0.17164762318134308,-60.0014969,1500.0,29.573237,0.0,0.0,-9.601214408874512,20.810060501098633,143.0,0.0,0.0,0.0,49.3297923,-84.0,487.0,0.0,0.0,0.0,0.0,0.0,0.0,0.0005235987755982988,0.0,0.0,0.0,29.612199999999998,0.0,-0.001003074228036097,0.0,0.0,0.0,-0.00021825775467662772,0.0,0.0,0.001445921051780677,0.0,0.0,1500.0,0.0,0.0,0.0,-0.6025469303131104,1500.0,-0.8711670637130737,-0.9871205687522888,12272.32,0.01064650843716541,,,,,,,
22.600012999999997,0.0,0.0,0.5679244995117188,-60.0003515,1500.0,29.692501999999998,0.0,0.0,-9.20367431640625,20.813434600830078,146.0,0.0,0.0,0.0,49.3309891,-79.0,487.0,0.0,0.0,0.0,0.0,0.0,0.0,0.0005235987755982988,0.0,0.0,0.0,29.712132999999998,0.0,-0.0009944750655290022,0.0,0.0,0.0,-0.00045423895693932095,0.0,0.0,-0.00058921132244519,0.0,0.0,1500.0,0.0,0.0,0.0,-0.5918824076652527,1500.0,-0.8666017651557922,0.9562535881996155,12272.76,0.01064650843716541,,,,,,,
22.700015999999998,0.0,0.0,-0.09138523787260056,-60.0003515,1500.0,29.772530999999997,0.0,0.0,-9.321250915527344,20.80691909790039,148.0,0.0,0.0,0.0,49.3309891,-82.0,488.0,0.0,0.0,0.0,0.0,0.0,0.0,0.0005235987755982988,0.0,0.0,0.0,29.812136,0.0,-5.552834726426339e-06,0.0,0.0,0.0,-0.00022911468741939166,0.0,0.0,0.0003188709533662368,0.0,0.0,1500.0,0.0,0.0,0.0,-0.6931955814361572,1500.0,-0.867058277130127,0.07637635618448257,12272.76,0.01064650843716541,,,,,,,
22.800082999999997,0.0,0.0,-0.0719979926943779,-59.999205999999994,1500.0,29.892508999999997,0.0,0.0,-9.606645584106445,20.80377769470215,147.0,0.0,0.0,0.0,49.3321858,-82.0,493.0,0.0,0.0,0.0,0.0,0.0,0.0,0.0005235987755982988,0.0,0.0,0.0,29.912202999999998,0.0,0.0010436677990482526,0.0,0.0,0.0,-0.0010058960344645502,0.0,0.0,-0.0007609663573667236,0.0,0.0,1500.0,0.0,0.0,0.0,-0.4799046516418457,1500.0,-0.867058277130127,-0.09382212907075882,12273.2,0.01064650843716541,,,,,,,
22.899852,0.0,0.0,0.3953705430030823,-59.999205999999994,1500.0,29.972517999999997,0.0,0.0,-9.777667045593262,20.77340316772461,141.0,0.0,0.0,0.0,49.3321858,-84.0,494.0,0.0,0.0,0.0,0.0,0.0,0.0,0.0005235987755982988,0.0,0.0,0.0,30.011972,0.0,0.0017013574715423814,0.0,0.0,0.0,-0.000827585696139111,0.0,0.0,-0.00020606875374946438,0.0,0.0,1500.0,0.0,0.0,0.0,-0.5652210116386414,1500.0,-0.8697976469993591,-0.25616636872291565,12273.2,0.01064650843716541,,,,,,,
22.999879999999997,0.0,0.0,-0.07115224003791809,-59.9980603,1500.0,30.092606,0.0,0.0,-9.873348236083984,20.77037811279297,140.0,0.0,0.0,0.0,49.3333825,-84.0,492.0,0.0,0.0,0.0,0.0,0.0,0.0,0.0005235987755982988,0.0,0.0,0.0,30.112,0.0,-0.0014508675354088763,0.0,0.0,0.0,-0.000442442408168889,0.0,0.0,0.0005991467468351783,0.0,0.0,1500.0,0.0,0.0,0.0,-0.5278950929641724,1500.0,-0.8650798201560974,0.35218119621276855,12273.64,0.01064650843716541,,,,,,,
23.099843999999997,0.0,0.0,0.024320799857378006,-59.9980603,1500.0,30.172428,0.0,0.0,-9.533666610717773,20.746171951293945,141.0,0.0,0.0,0.0,49.3333825,-83.0,487.0,0.0,0.0,0.0,0.0,0.0,0.0,0.0005235987755982988,0.0,0.0,0.0,30.211964,0.0,-0.0022959574689871975,0.0,0.0,0.0,-0.0015395760269180595,0.0,0.0,-0.0017988485429765093,0.0,0.0,1500.0,0.0,0.0,0.0,-0.5598887801170349,1500.0,-0.867058277130127,0.604088544845581,12273.64,0.01064650843716541,,,,,,,
23.199861999999996,0.0,0.0,-0.2169032096862793,-59.9969146,1500.0,30.292454,0.0,0.0,-9.026305198669434,20.731508255004883,147.0,0.0,0.0,0.0,49.3345791,-82.0,484.0,0.0,0.0,0.0,0.0,0.0,0.0,0.0005235987755982988,0.0,0.0,0.0,30.311981999999997,0.0,-0.00040858879333153316,0.0,0.0,0.0,-0.0010837784770570875,0.0,0.0,0.0003582526105322368,0.0,0.0,1500.0,0.0,0.0,0.0,-0.7731797099113464,1500.0,-0.8629499077796936,-0.2970498502254486,12274.07,0.01064650843716541,,,,,,,
23.299930999999997,0.0,0.0,0.0355248898267746,-59.9969146,1500.0,30.372456,0.0,0.0,-9.38573932647705,20.755598068237305,145.0,0.0,0.0,0.0,49.3345791,-75.0,483.0,0.0,0.0,0.0,0.0,0.0,0.0,0.0005235987755982988,0.0,0.0,0.0,30.412050999999998,0.0,0.0013305883614889696,0.0,0.0,0.0,-0.0011202587125418316,0.0,0.0,-0.00018939153640975474,0.0,0.0,1500.0,0.0,0.0,0.0,-0.7305215001106262,1500.0,-0.8684276938438416,0.09622758626937866,12274.07,0.01064650843716541,,,,,,,
23.399880999999997,0.0,0.0,-0.06701979786157608,-59.9957688,1500.0,30.492967,0.0,0.0,-9.205469131469727,20.76921272277832,142.0,0.0,0.0,0.0,49.3357757,-74.0,486.0,0.0,0.0,0.0,0.0,0.0,0.0,0.0005235987755982988,0.0,0.0,0.0,30.512000999999998,0.0,0.0005636885384299008,0.0,0.0,0.0,-0.00045017077681662286,0.0,0.0,-0.001111055202321546,0.0,0.0,1500.0,0.0,0.0,0.0,-0.46924009919166565,1500.0,-0.8620359301567078,-1.0973721742630005,12274.51,0.01064650843716541,,,,,,,
23.499851999999997,0.0,0.0,0.06577989459037781,-59.9957688,1500.0,30.572810999999998,0.0,0.0,-9.076692581176758,20.757692337036133,144.0,0.0,0.0,0.0,49.3357757,-71.0,481.0,0.0,0.0,0.0,0.0,0.0,0.0,0.0005235987755982988,0.0,0.0,0.0,30.611971999999998,0.0,-0.0007535158131168879,0.0,0.0,0.0,0.00019492050525318238,0.0,0.0,0.001442871030131858,0.0,0.0,1500.0,0.0,0.0,0.0,-0.5705533027648926,1500.0,-0.8684276938438416,-0.904960036277771,12274.51,0.01064650843716541,,,,,,,
23.599884,0.0,0.0,0.23119398951530457,-59.994622899999996,1500.0,30.692435,0.0,0.0,-8.630513191223145,20.77130699157715,146.0,0.0,0.0,0.0,49.3369723,-71.0,480.0,0.0,0.0,0.0,0.0,0.0,0.0,0.0005235987755982988,0.0,0.0,0.0,30.712004,0.0,-0.0006419809231775394,0.0,0.0,0.0,-0.000664413309005022,0.0,0.0,-0.0014694438642351545,0.0,0.0,1500.0,0.0,0.0,0.0,-0.6292083263397217,1500.0,-0.86431884765625,-0.7689584493637085,12274.95,0.01064650843716541,,,,,,,
23.699851999999996,0.0,0.0,0.32929620146751404,-59.994622899999996,1500.0,30.772451999999998,0.0,0.0,-8.6879243850708,20.75874137878418,148.0,0.0,0.0,0.0,49.3369723,-73.0,487.0,0.0,0.0,0.0,0.0,0.0,0.0,0.0005235987755982988,0.0,0.0,0.0,30.811971999999997,0.0,0.0010639173810643061,0.0,0.0,0.0,0.0005924281817736265,0.0,0.0,0.0014406520759892257,0.0,0.0,1500.0,0.0,0.0,0.0,-0.6452051401138306,1500.0,-0.8739064931869507,-0.6885522603988647,12274.95,0.01064650843716541,,,,,,,
23.799877,0.0,0.0,0.6330758333206177,-59.9934769,1500.0,30.892436999999997,0.0,0.0,-8.01990032196045,20.776195526123047,148.0,0.0,0.0,0.0,49.3381689,-75.0,488.0,0.0,0.0,0.0,0.0,0.0,0.0,0.0005235987755982988,0.0,0.0,0.0,30.911997,0.0,0.001784138609105862,0.0,0.0,0.0,0.0006790264302081123,0.0,0.0,0.00033460333693712907,0.0,0.0,1500.0,0.0,0.0,0.0,-0.5172305703163147,1500.0,-0.8635584115982056,-0.8331976532936096,12275.380000000001,0.01064650843716541,,,,,,,
23.899849999999997,0.0,0.0,0.2928640842437744,-59.9934769,1500.0,30.97243,0.0,0.0,-8.86499309539795,20.752456665039062,145.0,0.0,0.0,0.0,49.3381689,-72.0,491.0,0.0,0.0,0.0,0.0,0.0,0.0,0.0005235987755982988,0.0,0.0,0.0,31.011969999999998,0.0,-0.0002230903907689695,0.0,0.0,0.0,0.0012436664505567686,0.0,0.0,0.0010881656058303565,0.0,0.0,1500.0,0.0,0.0,0.0,-0.4425787329673767,1500.0,-0.8697976469993591,-0.5998867154121399,12275.380000000001,0.01064650843716541,,,,,,,
23.999865999999997,0.0,0.0,0.21633127331733704,-59.9923308,1500.0,31.092436,0.0,0.0,-9.026917457580566,20.752456665039062,147.0,0.0,0.0,0.0,49.3393654,-72.0,491.0,0.0,0.0,0.0,0.0,0.0,0.0,0.0005235987755982988,0.0,0.0,0.0,31.111985999999998,0.0,-0.0014173245793529755,0.0,0.0,0.0,0.0008699776811100457,0.0,0.0,0.001304252455095933,0.0,0.0,1500.0,0.0,0.0,0.0,-0.5918824076652527,1500.0,-0.8711670637130737,0.2495943158864975,12275.82,0.01064650843716541,,,,,,,
24.099847999999998,0.0,0.0,-0.11635568737983704,-59.9923308,1500.0,31.172476999999997,0.0,0.0,-9.049434661865234,20.729413986206055,153.0,0.0,0.0,0.0,49.3393654,-74.0,483.0,0.0,0.0,0.0,0.0,0.0,0.0,0.0005235987755982988,0.0,0.0,0.0,31.211968,0.0,-0.0012768049910369787,0.0,0.0,0.0,0.0005056558785969986,0.0,0.0,-0.0007632487046261243,0.0,0.0,1500.0,0.0,0.0,0.0,-0.8318347334861755,1500.0,-0.8711670637130737,0.09010982513427734,12275.82,0.01064650843716541,,,,,,,
24.199865,0.0,0.0,0.07360043376684189,-59.798581,1500.0,31.29243,0.0,0.0,-8.946117401123047,20.724992752075195,156.0,0.0,0.0,0.0,49.1727292,-76.0,487.0,0.0,0.0,0.0,0.0,0.0,0.0,0.0005235987755982988,0.0,0.0,0.0,31.311985,0.0,0.0011000289611930749,0.0,0.0,0.0,0.00020229978913791243,0.0,0.0,-1.7567872089848643e-06,0.0,0.0,1500.0,0.0,0.0,0.0,-0.7251892685890198,1500.0,-0.8666017651557922,-0.7227807641029358,12213.76,0.01064650843716541,,,,,,,
24.299840999999997,0.0,0.0,0.1675530970096588,-59.798581,1500.0,31.372463,0.0,0.0,-9.23309326171875,20.723129272460938,148.0,0.0,0.0,0.0,49.1727292,-78.0,488.0,0.0,0.0,0.0,0.0,0.0,0.0,0.0005235987755982988,0.0,0.0,0.0,31.411960999999998,0.0,0.0004946813597499522,0.0,0.0,0.0,0.0006171229541560505,0.0,0.0,0.0007296859829215081,0.0,0.0,1500.0,0.0,0.0,0.0,-0.6612019538879395,1500.0,-0.8684276938438416,0.5373930335044861,12213.76,0.01064650843716541,,,,,,,
24.399866,0.0,0.0,0.11454714834690094,-59.7974421,1500.0,31.492784,0.0,0.0,-9.444686889648438,20.731508255004883,142.0,0.0,0.0,0.0,49.1739253,-78.0,489.0,0.0,0.0,0.0,0.0,0.0,0.0,0.0005235987755982988,0.0,0.0,0.0,31.511986,0.0,-0.0007609100512753172,0.0,0.0,0.0,0.0011708612439594265,0.0,0.0,-0.0013231458145246337,0.0,0.0,1500.0,0.0,0.0,0.0,-0.7785120010375977,1500.0,-0.86431884765625,0.46557486057281494,12214.2,0.01064650843716541,,,,,,,
24.499861,0.0,0.0,-0.15987277030944824,-59.7974421,1500.0,31.572974,0.0,0.0,-9.435417175292969,20.800634384155273,145.0,0.0,0.0,0.0,49.1739253,-80.0,486.0,0.0,0.0,0.0,0.0,0.0,0.0,0.0005235987755982988,0.0,0.0,0.0,31.611981,0.0,-0.0013832450899641808,0.0,0.0,0.0,0.0013925972326613199,0.0,0.0,0.00015147414645858392,0.0,0.0,1500.0,0.0,0.0,0.0,-0.5865501165390015,1500.0,-0.8697976469993591,0.031046392396092415,12214.2,0.01064650843716541,,,,,,,
24.59988,0.0,0.0,0.06812265515327454,-59.988892,1500.0,31.692431,0.0,0.0,-8.434913635253906,20.813434600830078,145.0,0.0,0.0,0.0,49.3429546,-80.0,484.0,0.0,0.0,0.0,0.0,0.0,0.0,0.0005235987755982988,0.0,0.0,0.0,31.712,0.0,0.0002618626775363734,0.0,0.0,0.0,0.00051822416541818,0.0,0.0,-0.0008887837205840596,0.0,0.0,1500.0,0.0,0.0,0.0,-0.6025469303131104,1500.0,-0.8650798201560974,-1.0134966373443604,12277.130000000001,0.01064650843716541,,,,,,,
24.699872,0.0,0.0,0.2701874375343323,-59.988892,1500.0,31.772439,0.0,0.0,-8.734368324279785,20.80901336669922,149.0,0.0,0.0,0.0,49.3429546,-81.0,489.0,0.0,0.0,0.0,0.0,0.0,0.0,0.0005235987755982988,0.0,0.0,0.0,31.811992,0.0,0.0016825269200632172,0.0,0.0,0.0,-6.844184211553845e-05,0.0,0.0,0.0006818641661889841,0.0,0.0,1500.0,0.0,0.0,0.0,-0.5225628614425659,1500.0,-0.8656883239746094,-0.3748334050178528,12277.130000000001,0.01064650843716541,,,,,,,
24.799874,0.0,0.0,0.21287387609481812,-59.987745499999996,1500.0,31.892435,0.0,0.0,-9.613105773925781,20.819488525390625,143.0,0.0,0.0,0.0,49.344151,-80.0,491.0,0.0,0.0,0.0,0.0,0.0,0.0,0.0005235987755982988,0.0,0.0,0.0,31.911994,0.0,0.00148380880951342,0.0,0.0,0.0,-8.185605725239468e-06,0.0,0.0,-0.001201380445873354,0.0,0.0,1500.0,0.0,0.0,0.0,-0.543891966342926,1500.0,-0.8588400483131409,-0.376696914434433,12277.56,0.01064650843716541,,,,,,,
24.899846999999998,0.0,0.0,0.384470134973526,-59.987745499999996,1500.0,31.972445999999998,0.0,0.0,-8.5400390625,20.807966232299805,140.0,0.0,0.0,0.0,49.344151,-80.0,493.0,0.0,0.0,0.0,0.0,0.0,0.0,0.0005235987755982988,0.0,0.0,0.0,32.011967,0.0,-0.00115245695429927,0.0,0.0,0.0,0.0006264744466673766,0.0,0.0,-0.00016105050573333868,0.0,0.0,1500.0,0.0,0.0,0.0,-0.5812178254127502,1500.0,-0.861579418182373,-1.4646186828613281,12277.56,0.01064650843716541,,,,,,,
24.999869999999998,0.0,0.0,0.18947580456733704,-59.9865989,1500.0,32.09243,0.0,0.0,-8.655352592468262,20.798307418823242,143.0,0.0,0.0,0.0,49.3453473,-80.0,485.0,0.0,0.0,0.0,0.0,0.0,0.0,0.0005235987755982988,0.0,0.0,0.0,32.11199,0.0,-0.00167952397186726,0.0,0.0,0.0,-0.0001558907936677634,0.0,0.0,0.0010980582479938488,0.0,0.0,1500.0,0.0,0.0,0.0,-0.7518506050109863,1500.0,-0.8650798201560974,-0.12086429446935654,12278.0,0.01064650843716541,,,,,,,
25.099859,0.0,0.0,-0.02915007621049881,-59.9865989,1500.0,32.172436999999995,0.0,0.0,-9.099020957946777,20.7901611328125,151.0,0.0,0.0,0.0,49.3453473,-80.0,486.0,0.0,0.0,0.0,0.0,0.0,0.0,0.0005235987755982988,0.0,0.0,0.0,32.211979,0.0,-0.00013541327276031485,0.0,0.0,0.0,-0.0005526357047016777,0.0,0.0,7.990569080545437e-05,0.0,0.0,1500.0,0.0,0.0,0.0,-0.37325918674468994,1500.0,-0.8697976469993591,0.4538787007331848,12278.0,0.01064650843716541,,,,,,,
25.199843999999995,0.0,0.0,0.16511479020118713,-59.9854523,1500.0,32.292435999999995,0.0,0.0,-9.371952056884766,20.7901611328125,148.0,0.0,0.0,0.0,49.3465436,-76.0,482.0,0.0,0.0,0.0,0.0,0.0,0.0,0.0005235987755982988,0.0,0.0,0.0,32.311963999999996,0.0,0.0011743670458631637,0.0,0.0,0.0,0.0004086267641830128,0.0,0.0,0.0005167917410535428,0.0,0.0,1500.0,0.0,0.0,0.0,-0.5865501165390015,1500.0,-0.867058277130127,-1.19054114818573,12278.43,0.01064650843716541,,,,,,,
25.299882,0.0,0.0,0.2860521972179413,-59.9854523,1500.0,32.372431,0.0,0.0,-9.329865455627441,20.78073501586914,142.0,0.0,0.0,0.0,49.3465436,-81.0,485.0,0.0,0.0,0.0,0.0,0.0,0.0,0.0005235987755982988,0.0,0.0,0.0,32.412002,0.0,0.0016773921426235707,0.0,0.0,0.0,-0.00020631489784362375,0.0,0.0,-0.003229841718602019,0.0,0.0,1500.0,0.0,0.0,0.0,-0.6771987676620483,1500.0,-0.867058277130127,0.7172859907150269,12278.43,0.01064650843716541,,,,,,,
25.399861999999995,0.0,0.0,-0.26733776926994324,-59.9843055,1500.0,32.492995,0.0,0.0,-9.899499893188477,20.78282928466797,141.0,0.0,0.0,0.0,49.3477399,-82.0,484.0,0.0,0.0,0.0,0.0,0.0,0.0,0.0005235987755982988,0.0,0.0,0.0,32.511981999999996,0.0,-0.000942621251514274,0.0,0.0,0.0,0.0023102350292921944,0.0,0.0,0.0042471083976201906,0.0,0.0,1500.0,0.0,0.0,0.0,-0.6505374312400818,1500.0,-0.861579418182373,-0.3522765040397644,12278.87,0.01064650843716541,,,,,,,
25.49988,0.0,0.0,0.21474380791187286,-59.9843055,1500.0,32.572806,0.0,0.0,-8.67857551574707,20.77037811279297,144.0,0.0,0.0,0.0,49.3477399,-79.0,482.0,0.0,0.0,0.0,0.0,0.0,0.0,0.0005235987755982988,0.0,0.0,0.0,32.612,0.0,-0.0019267139549254265,0.0,0.0,0.0,-0.00047049678817499537,0.0,0.0,-0.004206189863738693,0.0,0.0,1500.0,0.0,0.0,0.0,-0.6078792214393616,1500.0,-0.8696456551551819,0.16720902919769287,12278.87,0.01064650843716541,,,,,,,
25.599853999999997,0.0,0.0,-0.3424229323863983,-59.9831587,1500.0,32.692456,0.0,0.0,-9.278560638427734,20.75455093383789,147.0,0.0,0.0,0.0,49.348936099999996,-88.0,480.0,0.0,0.0,0.0,0.0,0.0,0.0,0.0005235987755982988,0.0,0.0,0.0,32.711974,0.0,-3.622792427655683e-06,0.0,0.0,0.0,0.0009020246246287973,0.0,0.0,0.0016475471833977322,0.0,0.0,1500.0,0.0,0.0,0.0,-0.5812178254127502,1500.0,-0.86431884765625,-1.5986510515213013,12279.31,0.01064650843716541,,,,,,,
25.699873999999998,0.0,0.0,0.04652447998523712,-59.9831587,1500.0,32.772455,0.0,0.0,-8.673401832580566,20.75455093383789,151.0,0.0,0.0,0.0,49.348936099999996,-86.0,485.0,0.0,0.0,0.0,0.0,0.0,0.0,0.0005235987755982988,0.0,0.0,0.0,32.811994,0.0,0.0012224973107453783,0.0,0.0,0.0,-0.0007049953067097061,0.0,0.0,-0.0005813897821704522,0.0,0.0,1500.0,0.0,0.0,0.0,-0.29327505826950073,1500.0,-0.867058277130127,-0.11578598618507385,12279.31,0.01064650843716541,,,,,,,
25.799879,0.0,0.0,0.020294256508350372,-59.982011799999995,1500.0,32.892434,0.0,0.0,-9.58747673034668,20.766887664794922,148.0,0.0,0.0,0.0,49.3501322,-87.0,484.0,0.0,0.0,0.0,0.0,0.0,0.0,0.0005235987755982988,0.0,0.0,0.0,32.911999,0.0,0.0016828977860509568,0.0,0.0,0.0,-0.0005970532785544563,0.0,0.0,-0.001458449092100033,0.0,0.0,1500.0,0.0,0.0,0.0,-0.4425787329673767,1500.0,-0.8666017651557922,-0.9759343862533569,12279.74,0.01064650843716541,,,,,,,
25.899835,0.0,0.0,-0.6040657758712769,-59.982011799999995,1500.0,32.972445,0.0,0.0,-8.692192077636719,20.761882781982422,144.0,0.0,0.0,0.0,49.3501322,-85.0,483.0,0.0,0.0,0.0,0.0,0.0,0.0,0.0005235987755982988,0.0,0.0,0.0,33.011955,0.0,-0.0014164616527419518,0.0,0.0,0.0,-0.0009711933419739876,0.0,0.0,0.0008701806041022854,0.0,0.0,1500.0,0.0,0.0,0.0,-0.5598887801170349,1500.0,-0.8684276938438416,-0.4768075942993164,12279.74,0.01064650843716541,,,,,,,
25.999847,0.0,0.0,-0.5224400758743286,-59.9808647,1500.0,33.092428999999996,0.0,0.0,-8.656423568725586,20.766071319580078,150.0,0.0,0.0,0.0,49.3513284,-81.0,480.0,0.0,0.0,0.0,0.0,0.0,0.0,0.0005235987755982988,0.0,0.0,0.0,33.111967,0.0,-0.001548883046719776,0.0,0.0,0.0,-0.00232125099748482,0.0,0.0,-0.00043510918994901055,0.0,0.0,1500.0,0.0,0.0,0.0,-0.3625946342945099,1500.0,-0.8602100014686584,-1.1338958740234375,12280.18,0.01064650843716541,,,,,,,
26.099844,0.0,0.0,-1.2542788982391357,-59.9808647,1500.0,33.172447,0.0,0.0,-9.015362739562988,20.572309494018555,155.0,0.0,0.0,0.0,49.3513284,-82.0,479.0,0.0,0.0,0.0,0.0,0.0,0.0,0.0005235987755982988,0.0,0.0,0.0,33.211964,0.0,-0.0004172685463701504,0.0,0.0,0.0,-0.004136752099504081,0.0,0.0,0.0015165503465362075,0.0,0.0,1500.0,0.0,0.0,0.0,-0.3999205529689789,1500.0,-0.8711670637130737,0.6160687208175659,12280.18,0.01064650843716541,,,,,,,
26.199870999999998,0.0,0.0,-2.2908263206481934,-59.9797176,1500.0,33.292432999999996,0.0,0.0,-9.737627029418945,20.541120529174805,158.0,0.0,0.0,0.0,49.3525245,-75.0,479.0,0.0,0.0,0.0,0.0,0.0,0.0,0.0005235987755982988,0.0,0.0,0.0,33.311991,0.0,0.00021091931871559984,0.0,0.0,0.0,-0.006563693401636542,0.0,0.0,-0.0013956826244183663,0.0,0.0,1500.0,0.0,0.0,0.0,-0.6238760352134705,1500.0,-0.8635584115982056,-1.1167714595794678,12280.61,0.01064650843716541,,,,,,,
26.299888999999997,0.0,0.0,-1.520626425743103,-59.9797176,1500.0,33.372442,0.0,0.0,-9.686142921447754,20.72417640686035,157.0,0.0,0.0,0.0,49.3525245,-65.0,480.0,0.0,0.0,0.0,0.0,0.0,0.0,0.0005235987755982988,0.0,0.0,0.0,33.412009,0.0,0.0010514345936775353,0.0,0.0,0.0,-0.008719531666731393,0.0,0.0,0.0007310412302301411,0.0,0.0,1500.0,0.0,0.0,0.0,-0.45324328541755676,1500.0,-0.8697976469993591,-0.00014885002747178078,12280.61,0.01064650843716541,,,,,,,
26.399863999999997,0.0,0.0,-2.292062282562256,-59.8561292,1500.0,33.492810999999996,0.0,0.0,-9.308188438415527,20.788066864013672,156.0,0.0,0.0,0.0,49.247149099999994,-55.0,485.0,0.0,0.0,0.0,0.0,0.0,0.0,0.0005235987755982988,0.0,0.0,0.0,33.511984,0.0,-0.001095837733405265,0.0,0.0,0.0,-0.012444870630750816,0.0,0.0,-0.001679092638598911,0.0,0.0,1500.0,0.0,0.0,0.0,-0.5118982791900635,1500.0,-0.8684276938438416,-1.0795419216156006,12241.380000000001,0.01064650843716541,,,,,,,
26.499875,0.0,0.0,-1.2988507747650146,-59.8561292,1500.0,33.572790999999995,0.0,0.0,-8.95136833190918,20.79120635986328,158.0,0.0,0.0,0.0,49.247149099999994,-42.0,482.0,0.0,0.0,0.0,0.0,0.0,0.0,0.0005235987755982988,0.0,0.0,0.0,33.611995,0.0,-0.0010080036117774145,0.0,0.0,0.0,-0.013913238827576932,0.0,0.0,0.0008918626755015572,0.0,0.0,1500.0,0.0,0.0,0.0,-0.35726234316825867,1500.0,-0.8656883239746094,-0.3167450428009033,12241.380000000001,0.01064650843716541,,,,,,,
26.599861999999998,0.0,0.0,-1.0345008373260498,-59.977423099999996,1500.0,33.692437999999996,0.0,0.0,-8.768489837646484,20.79120635986328,160.0,0.0,0.0,0.0,49.354916599999996,-23.0,483.0,0.0,0.0,0.0,0.0,0.0,0.0,0.0005235987755982988,0.0,0.0,0.0,33.711982,0.0,-0.0001318208661062851,0.0,0.0,0.0,-0.015336851353927504,0.0,0.0,-0.0007609519882602561,0.0,0.0,1500.0,0.0,0.0,0.0,-0.3306009769439697,1500.0,-0.8629499077796936,-0.027379754930734634,12281.49,0.01064650843716541,,,,,,,
26.699863999999994,0.0,0.0,-0.8630837798118591,-59.977423099999996,1500.0,33.772434,0.0,0.0,-9.255203247070312,20.76339340209961,158.0,0.0,0.0,0.0,49.354916599999996,-3.0,483.0,0.0,0.0,0.0,0.0,0.0,0.0,0.0005235987755982988,0.0,0.0,0.0,33.811983999999995,0.0,0.0007558608382886626,0.0,0.0,0.0,-0.014698626879284617,0.0,0.0,-0.001361272320487913,0.0,0.0,1500.0,0.0,0.0,0.0,-0.5652210116386414,1500.0,-0.8650798201560974,-0.971267580986023,12281.49,0.01064650843716541,,,,,,,
26.799865,0.0,0.0,-1.5197889804840088,-59.783767399999995,1500.0,33.892433,0.0,0.0,-9.671823501586914,20.76397705078125,149.0,0.0,0.0,0.0,49.1882759,12.0,487.0,0.0,0.0,0.0,0.0,0.0,0.0,0.0005235987755982988,0.0,0.0,0.0,33.911985,0.0,0.0027783459281170678,0.0,0.0,0.0,-0.010717840832456154,0.0,0.0,-0.0005566225790884591,0.0,0.0,1500.0,0.0,0.0,0.0,-0.5385596752166748,1500.0,-0.8602100014686584,-0.9301401376724243,12219.44,0.01064650843716541,,,,,,,
26.899861999999995,0.0,0.0,-0.34675973653793335,-59.783767399999995,1500.0,33.972482,0.0,0.0,-9.30107593536377,20.74302864074707,142.0,0.0,0.0,0.0,49.1882759,25.0,485.0,0.0,0.0,0.0,0.0,0.0,0.0,0.0005235987755982988,0.0,0.0,0.0,34.011981999999996,0.0,0.0009430362651187168,0.0,0.0,0.0,-0.006615937132083331,0.0,0.0,0.0003392564242172088,0.0,0.0,1500.0,0.0,0.0,0.0,-0.506566047668457,1500.0,-0.861579418182373,-0.5917847752571106,12219.44,0.01064650843716541,,,,,,,
26.999847,0.0,0.0,-0.2712537944316864,-59.782627299999994,1500.0,34.092437,0.0,0.0,-9.279154777526855,20.75175666809082,134.0,0.0,0.0,0.0,49.1894716,34.0,490.0,0.0,0.0,0.0,0.0,0.0,0.0,0.0005235987755982988,0.0,0.0,0.0,34.111967,0.0,0.0016924921879820224,0.0,0.0,0.0,-0.004060019510521848,0.0,0.0,-0.000286128311027567,0.0,0.0,1500.0,0.0,0.0,0.0,-0.3412655293941498,1500.0,-0.8574706315994263,-0.5408627986907959,12219.87,0.01064650843716541,,,,,,,
27.099867,0.0,0.0,-0.4263938069343567,-59.782627299999994,1500.0,34.172436,0.0,0.0,-9.83021354675293,20.794349670410156,128.0,0.0,0.0,0.0,49.1894716,36.0,487.0,0.0,0.0,0.0,0.0,0.0,0.0,0.0005235987755982988,0.0,0.0,0.0,34.211987,0.0,0.0006359412171233489,0.0,0.0,0.0,-0.0018795228184315198,0.0,0.0,5.694992165314593e-05,0.0,0.0,1500.0,0.0,0.0,0.0,-0.4639078378677368,1500.0,-0.8629499077796936,-0.5621514916419983,12219.87,0.01064650843716541,,,,,,,
27.199856,0.0,0.0,0.5083199143409729,-59.5960974,1500.0,34.292429999999996,0.0,0.0,-9.203689575195312,20.815298080444336,127.0,0.0,0.0,0.0,49.0276357,37.0,487.0,0.0,0.0,0.0,0.0,0.0,0.0,0.0005235987755982988,0.0,0.0,0.0,34.311976,0.0,-0.0016628682919326064,0.0,0.0,0.0,8.319580169304888e-05,0.0,0.0,-8.499045270143519e-05,0.0,0.0,1500.0,0.0,0.0,0.0,-0.45324328541755676,1500.0,-0.8602100014686584,-0.5680105090141296,12159.58,0.01064650843716541,,,,,,,
27.300021999999995,0.0,0.0,0.5030897855758667,-59.5960974,1500.0,34.372443,0.0,0.0,-9.140076637268066,20.81110954284668,132.0,0.0,0.0,0.0,49.0276357,37.0,486.0,0.0,0.0,0.0,0.0,0.0,0.0,0.0005235987755982988,0.0,0.0,0.0,34.412141999999996,0.0,-0.0013263735969747288,0.0,0.0,0.0,0.0020307425146721832,0.0,0.0,-0.00021456830779000659,0.0,0.0,1500.0,0.0,0.0,0.0,-0.543891966342926,1500.0,-0.8629499077796936,-0.6845217347145081,12159.58,0.01064650843716541,,,,,,,
27.399852999999997,0.0,0.0,0.00841106753796339,-59.7146749,1500.0,34.492779,0.0,0.0,-8.933466911315918,20.814250946044922,141.0,0.0,0.0,0.0,49.134265199999994,36.0,485.0,0.0,0.0,0.0,0.0,0.0,0.0,0.0005235987755982988,0.0,0.0,0.0,34.511973,0.0,-0.00017430504742550423,0.0,0.0,0.0,0.003889561336222939,0.0,0.0,-0.0002549593946853462,0.0,0.0,1500.0,0.0,0.0,0.0,-0.48523691296577454,1500.0,-0.8588400483131409,-0.3710559606552124,12199.29,0.01064650843716541,,,,,,,
27.499889,0.0,0.0,-0.04169239103794098,-59.7146749,1500.0,34.572967,0.0,0.0,-9.069576263427734,20.80179786682129,142.0,0.0,0.0,0.0,49.134265199999994,33.0,487.0,0.0,0.0,0.0,0.0,0.0,0.0,0.0005235987755982988,0.0,0.0,0.0,34.612009,0.0,0.0015096488842054568,0.0,0.0,0.0,0.006640375276125361,0.0,0.0,-0.00013512450898611284,0.0,0.0,1500.0,0.0,0.0,0.0,-0.4585755467414856,1500.0,-0.8620359301567078,-0.7913327217102051,12199.29,0.01064650843716541,,,,,,,
27.599859999999996,0.0,0.0,0.233160138130188,-59.713536999999995,1500.0,34.69243,0.0,0.0,-9.115342140197754,20.798540115356445,139.0,0.0,0.0,0.0,49.135460599999995,23.0,483.0,0.0,0.0,0.0,0.0,0.0,0.0,0.0005235987755982988,0.0,0.0,0.0,34.71198,0.0,0.0023311057338154142,0.0,0.0,0.0,0.009841487104170848,0.0,0.0,5.967122967321471e-05,0.0,0.0,1500.0,0.0,0.0,0.0,-0.4425787329673767,1500.0,-0.8588400483131409,-0.6269928216934204,12199.73,0.01064650843716541,,,,,,,
27.699863999999994,0.0,0.0,0.6005855798721313,-59.713536999999995,1500.0,34.772448,0.0,0.0,-9.248140335083008,20.76397705078125,136.0,0.0,0.0,0.0,49.135460599999995,8.0,493.0,0.0,0.0,0.0,0.0,0.0,0.0,0.0005235987755982988,0.0,0.0,0.0,34.811983999999995,0.0,0.0014525438444719725,0.0,0.0,0.0,0.011877050356534996,0.0,0.0,-0.0003755556804809022,0.0,0.0,1500.0,0.0,0.0,0.0,-0.4372464716434479,1500.0,-0.8602100014686584,-0.7714657783508301,12199.73,0.01064650843716541,,,,,,,
27.799846999999996,0.0,0.0,0.8367013335227966,-59.713536999999995,1500.0,34.892432,0.0,0.0,-9.649032592773438,20.771541595458984,136.0,0.0,0.0,0.0,49.135460599999995,-4.0,495.0,0.0,0.0,0.0,0.0,0.0,0.0,0.0005235987755982988,0.0,0.0,0.0,34.911967,0.0,-0.00032415081977005587,0.0,0.0,0.0,0.013461735234862224,0.0,0.0,-0.00037365138376247483,0.0,0.0,1500.0,0.0,0.0,0.0,-0.3039396107196808,1500.0,-0.8589920401573181,-0.31518176198005676,12199.73,0.01064650843716541,,,,,,,
27.900091999999997,0.0,0.0,0.4036112427711487,-105.21246529999999,1500.0,34.975535,0.0,0.0,-9.903989791870117,20.7974910736084,143.0,0.0,0.0,0.0,39.8422103,-20.0,497.0,0.0,0.0,0.0,0.0,0.0,0.0,0.0005235987755982988,0.0,0.0,0.0,35.012212,0.0,-0.004008233250813091,0.0,0.0,0.0,0.013020745926966826,0.0,0.0,-0.0005258156699522757,0.0,0.0,1500.0,5.0,0.0,0.0,-0.5172305703163147,1500.0,-0.86431884765625,-0.2911592721939087,1823.8700000000001,0.01064650843716541,,,,,,,
28.000686999999996,0.0,0.0,0.07089391350746155,-105.21248519999999,1500.0,35.093115,0.0,0.0,-8.945756912231445,20.79539680480957,154.0,0.0,0.0,0.0,39.8421934,-34.0,483.0,0.0,0.0,0.0,0.0,0.0,0.0,0.0005235987755982988,0.0,0.0,0.0,35.112807,0.0,-0.005198984589052559,0.0,0.0,0.0,0.012670939717784917,0.0,0.0,2.0847704200084464e-05,0.0,0.0,1500.0,5.0,0.0,0.0,-0.41591736674308777,1500.0,-0.8711670637130737,-0.032581888139247894,1825.97,0.01064650843716541,,,,,,,
28.100588,0.0,0.0,0.1786624789237976,-105.21248519999999,1500.0,35.172525,0.0,0.0,-7.732316970825195,20.75140953063965,165.0,0.0,0.0,0.0,39.8421934,-46.0,481.0,0.0,0.0,0.0,0.0,0.0,0.0,0.0005235987755982988,0.0,0.0,0.0,35.212708,0.0,-0.0005855371874344652,0.0,0.0,0.0,0.01149354579688788,0.0,0.0,-0.001816663374178593,0.0,0.0,1500.0,5.0,0.0,0.0,-0.41591736674308777,1500.0,-0.8711670637130737,-0.1972070187330246,1825.97,0.01064650843716541,,,,,,,
28.20132,0.0,0.0,0.008013652637600899,-105.21249449999999,1500.0,35.293749999999996,0.0,0.0,-8.592622756958008,20.748266220092773,165.0,0.0,0.0,0.0,39.842193,-65.0,480.0,0.0,0.0,0.0,0.0,0.0,0.0,0.0005235987755982988,0.0,0.0,0.0,35.31344,0.0,0.0020837461822972156,0.0,0.0,0.0,0.011934890886460155,0.0,0.0,0.0018636472314353127,0.0,0.0,1500.0,5.0,0.0,0.0,-0.543891966342926,1500.0,-0.8697976469993591,0.3254370391368866,1825.58,0.01064650843716541,,,,,,,
28.300578999999995,0.0,0.0,0.53232741355896,-105.21249449999999,1500.0,35.374207999999996,0.0,0.0,-8.584942817687988,20.71684455871582,156.0,0.0,0.0,0.0,39.842193,-79.0,482.0,0.0,0.0,0.0,0.0,0.0,0.0,0.0005235987755982988,0.0,0.0,0.0,35.412698999999996,0.0,0.0040518976494200816,0.0,0.0,0.0,0.011539461398853828,0.0,0.0,-0.0004415709641237149,0.0,0.0,1500.0,5.0,0.0,0.0,-0.4425787329673767,1500.0,-0.8848636150360107,-0.5503451824188232,1825.58,0.01064650843716541,,,,,,,
28.401127,0.0,0.0,0.33332300186157227,-105.212488,1500.0,35.495421,0.0,0.0,-10.17308521270752,20.787017822265625,148.0,0.0,0.0,0.0,39.8421981,-93.0,489.0,0.0,0.0,0.0,0.0,0.0,0.0,0.0005235987755982988,0.0,0.0,0.0,35.513247,0.0,0.0014863208674205561,0.0,0.0,0.0,0.010746787104851253,0.0,0.0,0.00030631375221316725,0.0,0.0,1500.0,5.0,0.0,0.0,-0.29327505826950073,1500.0,-0.8684276938438416,-0.06316820532083511,1825.21,0.01064650843716541,,,,,,,
28.501116,0.0,0.0,0.5927169322967529,-105.212488,1500.0,35.57358,0.0,0.0,-9.2507905960083,20.757692337036133,137.0,0.0,0.0,0.0,39.8421981,-105.0,490.0,0.0,0.0,0.0,0.0,0.0,0.0,0.0005235987755982988,0.0,0.0,0.0,35.613236,0.0,0.00021228490397865978,0.0,0.0,0.0,0.01164200766498409,0.0,0.0,-0.0005519459875912392,0.0,0.0,1500.0,5.0,0.0,0.0,-0.3252687156200409,1500.0,-0.8711670637130737,-0.35191965103149414,1825.21,0.01064650843716541,,,,,,,
28.601809,0.0,0.0,0.48253464698791504,-105.21248709999999,1500.0,35.694977,0.0,0.0,-8.834930419921875,20.84357452392578,133.0,0.0,0.0,0.0,39.8422032,-118.0,488.0,0.0,0.0,0.0,0.0,0.0,0.0,0.0005235987755982988,0.0,0.0,0.0,35.713929,0.0,-0.00038641836736811127,0.0,0.0,0.0,0.012251572989286901,0.0,0.0,-0.0007271948609975506,0.0,0.0,1500.0,5.0,0.0,0.0,-0.2826105058193207,1500.0,-0.8697976469993591,-0.21846625208854675,1824.3400000000001,0.01064650843716541,,,,,,,
28.701038,0.0,0.0,0.0653298944234848,-105.21248709999999,1500.0,35.773238,0.0,0.0,-9.408246994018555,20.837873458862305,129.0,0.0,0.0,0.0,39.8422032,-131.0,487.0,0.0,0.0,0.0,0.0,0.0,0.0,0.0005235987755982988,0.0,0.0,0.0,35.813158,0.0,0.0002806040072673477,0.0,0.0,0.0,0.013034217777012344,0.0,0.0,3.9140897423104594e-05,0.0,0.0,1500.0,5.0,0.0,0.0,-0.16530048847198486,1500.0,-0.8711670637130737,-0.0003496810095384717,1824.3400000000001,0.01064650843716541,,,,,,,
28.801098,0.0,0.0,0.29058927297592163,-105.21249279999999,1500.0,35.894996,0.0,0.0,-9.016695976257324,20.84776496887207,122.0,0.0,0.0,0.0,39.8422092,-144.0,488.0,0.0,0.0,0.0,0.0,0.0,0.0,0.0005235987755982988,0.0,0.0,0.0,35.913218,0.0,0.0014674100830120668,0.0,0.0,0.0,0.013355276410583608,0.0,0.0,-0.0005964912579376925,0.0,0.0,1500.0,5.0,0.0,0.0,-0.1706327646970749,1500.0,-0.86431884765625,-0.3759157061576843,1822.78,0.01064650843716541,,,,,,,
28.901729,0.0,0.0,0.551877498626709,-105.21249279999999,1500.0,35.975789,0.0,0.0,-8.990398406982422,20.842529296875,111.0,0.0,0.0,0.0,39.8422092,-157.0,492.0,0.0,0.0,0.0,0.0,0.0,0.0,0.0013962634015954637,0.0,0.0,0.0,36.013849,0.0,0.0013262001273998184,0.0,0.0,0.0,0.01392887761690004,0.0,0.0,-0.0005088547277784149,0.0,0.0,1500.0,5.0,0.0,0.0,-0.3625946342945099,1500.0,-0.8656883239746094,-0.18602254986763,1822.78,0.07033676885537149,,,,,,,
29.002425999999996,0.0,0.0,0.6695727109909058,-105.21251029999999,1500.0,36.095357,0.0,0.0,-9.247786521911621,20.845672607421875,97.0,0.0,0.0,0.0,39.842221699999996,-171.0,491.0,0.0937241808320955,-0.021956751123070717,0.0,0.0,0.0,0.0,0.004537856055185257,0.0,-0.01671352982521057,0.0,36.114546,0.0,0.001153899716618334,0.004703377839177847,0.0,0.0,0.013267487801962668,0.0,0.0,-0.0009833360821805556,0.0,0.0,1500.0,5.0,0.07140819728374481,0.0,-0.2132909595966339,1500.0,-0.8602100014686584,-0.9209268093109131,1819.01,0.07819075048934597,,,,,,,
29.101730999999997,0.0,0.0,0.6605788469314575,-105.21251029999999,1500.0,36.17377,0.0,0.0,-9.201237678527832,20.834383010864258,83.0,0.0,0.0,0.0,39.842221699999996,-188.0,493.0,0.1551597705022959,-0.01584094762802124,0.0,0.0,0.0,0.0,0.0027925268031909274,0.0,-0.02523745782673359,0.0,36.213851,0.0,-0.0003566444409423437,0.012691149488091469,0.0,0.0,0.012979516864341036,0.0,0.0,0.0001090905813939277,0.0,0.0,1500.0,5.0,0.13024580478668213,0.0,-0.35193008184432983,1500.0,-0.8681231737136841,0.22349116206169128,1819.01,0.08150687606813518,,,,,,,
29.201709999999995,0.0,0.0,0.3703755736351013,-105.2125149,1500.0,36.295808,0.0,0.0,-9.342023849487305,20.842529296875,71.0,0.0,0.0,0.0,39.842226,-198.0,489.0,1.1946778729901186,-0.016137665137648582,0.0,0.0,0.0,0.0,0.00942477796076938,0.0,-0.029232967644929886,0.0,36.313829999999996,0.0,-0.0007459384176149344,0.08085454255342484,0.0,0.0,0.011943334979650848,0.0,0.0,-0.0010276795348506513,0.0,0.0,1500.0,5.0,0.21467721462249756,0.0,-0.2879427969455719,1500.0,-0.861579418182373,0.08409286290407181,1818.21,0.07557275661135447,,,,,,,
